"Time (s)","Linear Acceleration x (m/s^2)","Linear Acceleration y (m/s^2)","Linear Acceleration z (m/s^2)","Absolute acceleration (m/s^2)"
8.438708319E-3,2.256037062E-1,-2.458140224E-2,4.574107236E-1,5.106132075E-1
1.849370834E-2,7.311987028E-2,6.057744652E-2,3.211530572E-1,3.348961460E-1
2.854770835E-2,1.837210507E-1,2.162999091E-1,1.417715907E-2,2.841479667E-1
3.860170837E-2,8.481693283E-2,4.298630288E-1,-1.995262939E-1,4.814424967E-1
4.865670833E-2,1.826126379E-1,3.021779653E-1,-2.383915669E-1,4.260157713E-1
5.871070834E-2,1.058110683E-1,7.384185523E-2,-1.594909930E-1,2.051486744E-1
6.876470835E-2,1.462922193E-2,6.209772259E-2,-8.394905984E-2,1.054399636E-1
7.881870837E-2,-2.348124862E-2,1.621821740E-1,-6.583029270E-2,1.766013988E-1
8.887370833E-2,6.798119098E-4,1.409494722E-1,-3.365891218E-2,1.449142444E-1
9.892770834E-2,-1.213560373E-2,4.277238250E-4,-5.923814178E-3,1.351101032E-2
1.089817084E-1,-3.203981817E-2,8.505798429E-2,1.039447832E-1,1.380794286E-1
1.190357084E-1,-4.372737899E-2,1.931770948E-1,2.932045358E-1,3.538338218E-1
1.290907083E-1,-1.547261701E-1,8.167069227E-2,4.140284765E-1,4.494773287E-1
1.391447083E-1,-2.210660476E-1,-1.450577259E-2,2.786186564E-1,3.559620353E-1
1.491987084E-1,6.914983012E-2,-2.348972708E-2,1.852345294E-1,1.991112683E-1
1.592537083E-1,8.134383291E-2,2.731672972E-2,6.135600328E-2,1.054873548E-1
1.693077083E-1,2.116757116E-1,-1.533081472E-1,1.292819381E-3,2.613650058E-1
1.793617083E-1,1.639307108E-1,3.374165028E-2,-3.105105400E-2,1.702232207E-1
1.894157084E-1,3.276370347E-2,5.873762012E-2,-2.259633100E-1,2.357604414E-1
1.994707083E-1,4.117653117E-2,6.976576120E-2,-2.442598325E-1,2.573434163E-1
2.095247083E-1,1.100437946E-1,1.191063210E-1,-2.618207753E-1,3.079708928E-1
2.195787083E-1,9.968713313E-2,4.378190428E-2,-2.022750700E-1,2.297163111E-1
2.296337084E-1,-4.353493251E-2,-1.663328201E-2,-2.883320510E-1,2.920741825E-1
2.396877083E-1,-4.859555148E-2,-9.340196103E-2,-4.220964646E-1,4.350297454E-1
2.497417083E-1,-1.139259072E-1,-1.379825950E-1,-5.680505687E-1,5.955667531E-1
2.597957083E-1,-2.050656536E-1,-5.391805261E-2,-7.927818704E-1,8.206474107E-1
2.698507084E-1,-1.288927328E-1,-7.490283251E-4,-1.085905715E0,1.093528746E0
2.799047083E-1,-5.483577311E-2,-3.022162646E-2,-1.522854107E0,1.524140722E0
2.899587083E-1,1.356419545E-1,-1.105497980E-1,-2.317960830E0,2.324556390E0
3.000127084E-1,3.085398822E-1,-2.434029230E-1,-3.294959230E0,3.318312548E0
3.100677084E-1,3.631128229E-1,-5.284371445E-1,-4.451091759E0,4.497033976E0
3.201217083E-1,6.288772528E-1,-5.918531218E-1,-5.846672446E0,5.910106210E0
3.301757083E-1,-9.787951027E-1,-4.464150345E-1,-6.693597195E0,6.779496267E0
3.402307084E-1,-5.526310225E-1,-2.506637616E0,-6.012878382E0,6.537839063E0
3.502847084E-1,-1.106863305E-2,-3.676956951E0,-5.430134345E0,6.557933664E0
3.603387083E-1,-1.579081517E-1,-2.862378708E0,-4.484786924E0,5.322730559E0
3.703927083E-1,-1.709278545E-1,-1.881826663E0,-4.569455191E0,4.944735449E0
3.804477084E-1,2.142261940E-1,-1.753497821E0,-5.180443618E0,5.473357612E0
3.905017083E-1,-7.257564068E-3,-1.683870931E0,-5.505179849E0,5.756950508E0
4.005557083E-1,-5.283257550E-1,-1.444706362E0,-5.335097795E0,5.552438478E0
4.106107083E-1,-8.731454176E-1,-1.270919512E0,-5.299603441E0,5.519367352E0
4.206647084E-1,-9.308302465E-1,-1.727854272E0,-5.000096776E0,5.371488910E0
4.307187083E-1,-8.842188746E-1,-2.353836130E0,-4.610594446E0,5.251663421E0
4.407727083E-1,-8.019438726E-1,-2.632650375E0,-3.947671049E0,4.812283105E0
4.508277084E-1,-4.289374146E-1,-2.916486210E0,-3.546382486E0,4.611584094E0
4.608817084E-1,9.278361797E-2,-3.524485833E0,-3.695568346E0,5.107625142E0
4.709357083E-1,2.925590032E-1,-4.145316294E0,-4.223165538E0,5.924893679E0
4.809907083E-1,4.492006481E-2,-4.244585643E0,-4.750270395E0,6.370525404E0
4.910447084E-1,-3.272715837E-1,-3.498859826E0,-4.230617230E0,5.499749896E0
5.010987084E-1,-4.169690412E-1,-2.537128506E0,-2.406152630E0,3.521427937E0
5.111527083E-1,-4.881512904E-1,-1.871049367E0,-1.605370599E-1,1.940332333E0
5.212077083E-1,-1.013521278E0,-1.317558365E0,2.195086856E0,2.753469036E0
5.312617084E-1,-1.643259387E0,-9.960269934E-1,4.575991793E0,4.963070831E0
5.413157084E-1,-2.750688118E0,-1.571339219E0,4.481699009E0,5.488261844E0
5.513707083E-1,-3.527284895E0,-2.228531760E0,3.986665546E0,5.770753392E0
5.614247083E-1,-4.745921236E0,-2.406413416E0,3.728731415E0,6.497540447E0
5.714787084E-1,-6.738152393E0,-2.468293329E0,3.345368661E0,7.917490834E0
5.815327084E-1,-8.867948070E0,-2.397542020E0,3.151503056E0,9.711883557E0
5.915877083E-1,-1.086850976E1,-1.960438676E0,3.201740579E0,1.149865065E1
6.016417083E-1,-1.257637152E1,-1.385925765E0,3.480382040E0,1.312246051E1
6.116957084E-1,-1.347547097E1,-8.434070635E-1,3.739670678E0,1.401016739E1
6.217507083E-1,-1.337192029E1,-3.495839739E-1,3.806285375E0,1.390748969E1
6.318047083E-1,-1.220469209E1,-1.191972452E-1,3.442739419E0,1.268152876E1
6.418587083E-1,-1.106301388E1,-2.977969390E-1,2.899837433E0,1.144063006E1
6.519127084E-1,-1.069412473E1,-8.306159869E-1,2.625300718E0,1.104293578E1
6.619677083E-1,-1.083990050E1,-1.479352577E0,2.385155132E0,1.119736093E1
6.720217083E-1,-1.108868315E1,-2.110817661E0,2.041228486E0,1.147087874E1
6.820757083E-1,-1.124440386E1,-2.581284048E0,1.947134507E0,1.170004181E1
6.921297084E-1,-1.136731116E1,-2.619785624E0,2.072095937E0,1.184789523E1
7.021847083E-1,-1.130540903E1,-1.686525567E0,2.267214600E0,1.165319286E1
7.122387083E-1,-1.060573822E1,1.637020116E-1,2.458777571E0,1.088825370E1
7.222927083E-1,-9.326182081E0,2.175555694E0,2.779726560E0,9.971840078E0
7.323477084E-1,-7.712499080E0,4.114784473E0,3.570189425E0,9.442475621E0
7.424017083E-1,-5.799819292E0,6.012950887E0,4.629837048E0,9.551380700E0
7.524557083E-1,-3.692648832E0,7.543387663E0,5.184361253E0,9.869952099E0
7.625097084E-1,-1.453814278E0,8.502435696E0,5.117204812E0,1.002949519E1
7.725647084E-1,9.634504008E-1,9.218700902E0,4.527111994E0,1.031539752E1
7.826187083E-1,3.261592678E0,9.939952029E0,3.524005777E0,1.103898772E1
7.926727083E-1,5.010611824E0,1.060232930E1,2.169446815E0,1.192569146E1
8.027277084E-1,6.124152065E0,1.118683919E1,7.038772953E-1,1.277286393E1
8.127817084E-1,6.688131217E0,1.137218657E1,-5.552826251E-1,1.320477434E1
8.228357083E-1,7.186513381E0,1.158037669E1,-1.635227652E0,1.372680109E1
8.328897083E-1,7.521274078E0,1.176940080E1,-2.398188137E0,1.417179118E1
8.429480834E-1,7.750830503E0,1.163143808E1,-2.997683862E0,1.429516820E1
8.530020834E-1,7.946298829E0,1.098971435E1,-3.390962909E0,1.397913145E1
8.630560833E-1,8.227477981E0,1.046217154E1,-3.822295636E0,1.384768468E1
8.731110833E-1,8.540910959E0,9.835975671E0,-4.110892566E0,1.365990538E1
8.831650834E-1,9.003737374E0,9.112851096E0,-4.213052194E0,1.348559048E1
8.932190834E-1,9.571366358E0,8.188642529E0,-3.833079656E0,1.316652650E1
9.032730833E-1,9.464518433E0,7.294345393E0,-2.943177288E0,1.230637544E1
9.133280833E-1,8.807363314E0,6.582735740E0,-2.354692454E0,1.124484926E1
9.233820834E-1,8.108399434E0,6.089814291E0,-2.152633878E0,1.036657186E1
9.334360833E-1,7.432934344E0,5.676620797E0,-2.101343271E0,9.585832264E0
9.434910833E-1,6.835737745E0,5.323685784E0,-2.032566567E0,8.899453224E0
9.535450834E-1,6.604275128E0,5.194528391E0,-1.952153757E0,8.626150907E0
9.635990834E-1,6.404331343E0,5.266701744E0,-1.713731784E0,8.467023316E0
9.736530833E-1,5.729422908E0,5.450335890E0,-1.717352380E0,8.092079299E0
9.837080833E-1,4.856114938E0,5.857521370E0,-1.644889006E0,7.784476138E0
9.937620834E-1,3.877938910E0,6.316902605E0,-1.240913501E0,7.515419817E0
1.003816083E0,2.276897004E0,5.959903777E0,-8.272032595E-1,6.433426632E0
1.013871083E0,-3.173418421E-1,4.515127833E0,-6.689916372E-1,4.575438231E0
1.023925083E0,-4.547291905E0,2.218888824E0,-6.012512054E-1,5.095373813E0
1.033979083E0,-1.023047796E1,-1.329975805E0,8.208385652E-1,1.034916860E1
1.044033083E0,-1.656433632E1,-6.236242020E0,4.152697819E0,1.818001241E1
1.054088083E0,-2.200138616E1,-1.111114815E1,8.524155763E0,2.608025763E1
1.064142083E0,-2.524690894E1,-1.467052725E1,1.246651403E1,3.174972052E1
1.074196083E0,-2.622799220E1,-1.610643618E1,1.443691227E1,3.399631300E1
1.084251083E0,-2.579240504E1,-1.614329235E1,1.479682594E1,3.383489476E1
1.094305083E0,-2.510751833E1,-1.624113264E1,1.455791923E1,3.325800473E1
1.104359083E0,-2.403827075E1,-1.601284682E1,1.345523142E1,3.186366232E1
1.114413083E0,-2.142187330E1,-1.522961111E1,1.081781556E1,2.842292813E1
1.124468083E0,-1.857254733E1,-1.331115954E1,7.987536317E0,2.420593355E1
1.134522083E0,-1.613843916E1,-1.081426280E1,5.483432300E0,2.018577539E1
1.144576083E0,-1.258361271E1,-7.646706795E0,2.547481002E0,1.494353014E1
1.154631083E0,-8.155122780E0,-3.899448185E0,-3.881685805E-1,9.047784179E0
1.164685083E0,-3.745363820E0,-2.833224490E-1,-3.175860218E0,4.918750845E0
1.174739083E0,7.252617323E-1,2.984780519E0,-5.705434706E0,6.479730281E0
1.184793083E0,3.418252450E0,5.516104202E0,-6.908000559E0,9.477991723E0
1.194848083E0,4.923946148E0,6.575308607E0,-6.940258479E0,1.075393494E1
1.204902083E0,6.948631691E0,7.126388801E0,-6.844954711E0,1.207983049E1
1.214956083E0,8.806396185E0,7.913709957E0,-7.488616794E0,1.400923983E1
1.225011083E0,9.917513924E0,7.996244575E0,-8.304430847E0,1.520725424E1
1.235065083E0,1.079249478E1,7.671163943E0,-8.434742480E0,1.569934969E1
1.245119083E0,1.132862248E1,6.905109111E0,-7.994057132E0,1.548945346E1
1.255173083E0,1.144856758E1,5.774159371E0,-7.837606106E0,1.502793018E1
1.265228083E0,1.137026167E1,4.952324440E0,-7.538574235E0,1.451338931E1
1.275282083E0,1.126203906E1,4.687906624E0,-7.065287737E0,1.409710194E1
1.285336083E0,1.127070814E1,4.545982421E0,-6.221014701E0,1.365268626E1
1.295391083E0,1.083652782E1,4.470545737E0,-4.961857156E0,1.272934173E1
1.305445083E0,1.026017479E1,4.664907770E0,-3.884692444E0,1.192155135E1
1.315499083E0,9.895107393E0,4.856696444E0,-2.995527409E0,1.142251440E1
1.325553083E0,9.521314192E0,5.070132387E0,-2.341179100E0,1.103824198E1
1.335608083E0,9.012194787E0,5.251808301E0,-1.918697889E0,1.060577894E1
1.345662083E0,8.348944530E0,5.371263993E0,-1.644783171E0,1.006283575E1
1.355716083E0,7.809294473E0,5.548770842E0,-1.533285101E0,9.701798865E0
1.365771083E0,7.646968750E0,5.820062937E0,-1.500983766E0,9.726367046E0
1.375825083E0,7.389522861E0,6.086283742E0,-1.865547137E0,9.753366805E0
1.385879083E0,6.820363076E0,6.001282768E0,-2.497632319E0,9.421831804E0
1.395933083E0,5.954071180E0,5.951158097E0,-2.447642133E0,8.766880763E0
1.405988083E0,5.492353397E0,5.594241714E0,-1.875578620E0,8.060972730E0
1.416042083E0,5.628043299E0,5.225646104E0,-2.249136763E0,8.002553639E0
1.426096083E0,5.419643270E0,4.817983491E0,-2.473849354E0,7.661946797E0
1.436151083E0,5.592974038E0,4.584758231E0,-2.541233252E0,7.665457134E0
1.446205083E0,6.007073851E0,4.550326317E0,-2.308267901E0,7.881529455E0
1.456259083E0,6.011296125E0,4.688321776E0,-1.855906833E0,7.846045651E0
1.466313083E0,4.274516956E0,3.785181019E0,-1.763717438E0,5.975766876E0
1.476368083E0,1.232104817E0,2.117095524E0,-1.620825375E0,2.937218179E0
1.486422083E0,-1.274938595E0,7.078940400E-1,-1.334328765E0,1.976617223E0
1.496476083E0,-4.081135501E0,-1.288728669E0,-7.177259870E-1,4.339541352E0
1.506531083E0,-8.295217974E0,-4.585492349E0,6.220406882E-1,9.498648111E0
1.516585083E0,-1.396006365E1,-9.901579092E0,3.147569634E0,1.740206425E1
1.526639083E0,-1.980259685E1,-1.501845412E1,7.138144628E0,2.585826589E1
1.536693083E0,-2.408694765E1,-1.775630292E1,1.095667407E1,3.186716253E1
1.546748083E0,-2.390481624E1,-1.790443044E1,1.322740870E1,3.266455586E1
1.556802083E0,-2.151446747E1,-1.788358979E1,1.397701823E1,3.127382504E1
1.566856083E0,-2.191261140E1,-1.895393665E1,1.435102252E1,3.233212180E1
1.576911083E0,-2.174787428E1,-1.918161319E1,1.356198053E1,3.201299168E1
1.586965083E0,-1.970430282E1,-1.735758830E1,1.052020398E1,2.828816206E1
1.597019083E0,-1.744978369E1,-1.474196970E1,6.908829694E0,2.386530011E1
1.607073083E0,-1.531694512E1,-1.180505361E1,3.777330548E0,1.970371347E1
1.617128083E0,-1.285200108E1,-8.043252096E0,9.788626380E-1,1.519295916E1
1.627182083E0,-8.827595850E0,-3.770181449E0,-1.015904603E0,9.652604768E0
1.637236083E0,-4.261544908E0,5.074202049E-1,-1.819284406E0,4.661334145E0
1.647290083E0,-6.181606221E-1,3.578786878E0,-1.861503788E0,4.081058003E0
1.657345083E0,1.718686715E0,5.345343286E0,-2.228791376E0,6.041033841E0
1.667399083E0,3.750545037E0,6.180199966E0,-2.770632386E0,7.741954760E0
1.677453083E0,5.986436688E0,7.206831286E0,-3.807787524E0,1.011311462E1
1.687508083E0,7.782110183E0,7.757489312E0,-5.149518864E0,1.213496699E1
1.697562083E0,8.859387746E0,7.887700372E0,-5.768377059E0,1.319010016E1
1.707616083E0,9.006929369E0,8.346458294E0,-6.092777075E0,1.370802959E1
1.717670083E0,9.160000704E0,8.514557558E0,-6.279441833E0,1.399409494E1
1.727725083E0,9.710651713E0,8.591195260E0,-6.346973666E0,1.443570114E1
1.737779083E0,1.012129056E1,8.658839943E0,-5.944657162E0,1.458612287E1
1.747833083E0,9.820452483E0,8.228249229E0,-5.128132673E0,1.380011294E1
1.757888083E0,9.170976512E0,7.581869944E0,-4.242552567E0,1.263292580E1
1.767942083E0,8.572719228E0,7.264620488E0,-3.456741747E0,1.175649987E1
1.777996083E0,8.069289747E0,7.187927238E0,-2.824096402E0,1.116938922E1
1.788050083E0,7.214316307E0,7.443192115E0,-2.403574592E0,1.064070672E1
1.798105083E0,6.348112119E0,7.771464157E0,-2.219219484E0,1.027711622E1
1.808159083E0,7.585716827E0,7.143728719E0,-1.287595478E0,1.049923149E1
1.818213083E0,8.002326849E0,6.996886423E0,-6.074216624E-1,1.064718816E1
1.828268083E0,7.598286002E0,7.834452118E0,-5.226779659E-1,1.092638011E1
1.838318083E0,6.823220610E0,7.615797243E0,-6.479983789E-1,1.024580934E1
1.848372083E0,5.803138756E0,6.400042995E0,-8.882867825E-1,8.684815667E0
1.858426083E0,5.862527171E0,5.777788153E0,-5.933912319E-1,8.252525306E0
1.868481083E0,5.900108981E0,6.309477226E0,-6.262829894E-1,8.661005671E0
1.878535083E0,5.498007655E0,6.786562076E0,-5.953249061E-1,8.754423152E0
1.888589083E0,5.741866953E0,7.008344042E0,-6.548817211E-1,9.083765320E0
1.898644083E0,6.748238840E0,7.441592317E0,-1.137968153E0,1.010994536E1
1.908698083E0,7.472765577E0,7.783109472E0,-1.403530562E0,1.088066710E1
1.918752083E0,7.749953420E0,7.666188548E0,-1.470816811E0,1.099979668E1
1.928806083E0,6.896492069E0,7.354565867E0,-1.240698470E0,1.015827617E1
1.938861083E0,5.621561075E0,6.331669164E0,-9.435230899E-1,8.519519889E0
1.948915083E0,4.736828815E0,4.977442324E0,-8.692950261E-1,6.925904501E0
1.958969083E0,3.242062978E0,3.810558520E0,-7.564893723E-1,5.060000470E0
1.969023083E0,7.489195669E-1,2.385556105E0,-4.849844384E-1,2.546952758E0
1.979078083E0,-3.555720490E0,-7.843104243E-2,-2.727177925E-3,3.556586435E0
1.989132083E0,-9.519900336E0,-3.724853834E0,8.096183431E-1,1.025468285E1
1.999186083E0,-1.623227528E1,-7.382222613E0,2.249664767E0,1.797345162E1
2.009241083E0,-2.176953938E1,-1.010129425E1,4.472998352E0,2.441222450E1
2.019295083E0,-2.474199485E1,-1.144068086E1,7.139929783E0,2.817861042E1
2.029349083E0,-2.463702330E1,-1.205753404E1,9.261591983E0,2.895071899E1
2.039403083E0,-2.475517915E1,-1.390704928E1,1.052062732E1,3.028049725E1
2.049458083E0,-2.692135036E1,-1.676435319E1,1.044809495E1,3.339109658E1
2.059512083E0,-2.742514412E1,-1.795264424E1,8.740161849E0,3.392383225E1
2.069566083E0,-2.521074742E1,-1.645437592E1,6.247574508E0,3.074671461E1
2.079620083E0,-2.239850332E1,-1.362179521E1,4.111322336E0,2.653581028E1
2.089675083E0,-1.968548180E1,-1.085931559E1,2.603132461E0,2.263226077E1
2.099729083E0,-1.633602944E1,-7.582517815E0,1.463418914E0,1.806936715E1
2.109783083E0,-1.261944445E1,-4.085146983E0,-5.005206366E-1,1.327363270E1
2.119838083E0,-7.800281575E0,-9.588331470E-1,-9.957971247E-1,7.921828423E0
2.129892083E0,-2.063049710E0,2.288209612E0,6.871647835E-2,3.081687734E0
2.139946083E0,2.250267615E0,4.338389016E0,3.729798532E-1,4.901472999E0
2.150000083E0,4.532690822E0,5.053795266E0,1.433631297E-1,6.790190400E0
2.160055083E0,5.804404094E0,4.981448836E0,-6.803060726E-1,7.679111651E0
2.170109083E0,7.565863191E0,4.818775496E0,-1.239403896E0,9.055330205E0
2.180163083E0,9.133036854E0,4.847019594E0,-1.795904460E0,1.049434295E1
2.190218083E0,1.015628264E1,4.831980556E0,-2.501133631E0,1.152188277E1
2.200272083E0,1.100680576E1,4.945690774E0,-3.181500442E0,1.247924578E1
2.210326083E0,1.152777981E1,5.040430870E0,-3.804109626E0,1.314408235E1
2.220380083E0,1.151985099E1,5.245680419E0,-4.829261600E0,1.354791118E1
2.230435083E0,1.174379818E1,5.600093608E0,-5.885391539E0,1.427990468E1
2.240489083E0,1.171476792E1,6.030642807E0,-6.199033847E0,1.456133444E1
2.250543083E0,1.119814303E1,6.146476150E0,-6.141248739E0,1.417365558E1
2.260598083E0,1.042812086E1,5.867055255E0,-5.321976643E0,1.309547546E1
2.270652083E0,1.021253636E1,6.034766264E0,-4.146619053E0,1.256617493E1
2.280706083E0,9.683078583E0,6.040017064E0,-3.433602560E0,1.191777846E1
2.290760083E0,9.112141829E0,5.727760545E0,-2.659965059E0,1.108664889E1
2.300815083E0,8.413846870E0,5.787211525E0,-2.043172100E0,1.041437414E1
2.310869083E0,8.160527946E0,5.664631666E0,-1.718152864E0,1.008138470E1
2.320923083E0,8.078297968E0,5.332842523E0,-1.460938525E0,9.789404926E0
2.330978083E0,7.594915667E0,5.124120898E0,-1.456489964E0,9.276891827E0
2.341032083E0,7.240973178E0,5.024007211E0,-1.412272149E0,8.925629034E0
2.351086083E0,7.235013696E0,5.217043680E0,-1.076489943E0,8.984531069E0
2.361140083E0,7.205471224E0,5.560663494E0,-1.044420889E0,9.161365021E0
2.371195083E0,7.107384181E0,5.427461582E0,-1.308292868E0,9.037913440E0
2.381249083E0,7.077223658E0,5.129655288E0,-1.585951996E0,8.883451008E0
2.391303083E0,7.319581976E0,5.067849634E0,-1.731566377E0,9.069603207E0
2.401358083E0,7.673377699E0,5.244996879E0,-1.810342405E0,9.469321898E0
2.411412083E0,7.811864324E0,4.954980830E0,-1.625140620E0,9.392451292E0
2.421466083E0,7.198794873E0,4.453149394E0,-1.281329602E0,8.561249482E0
2.431520083E0,6.068501190E0,3.895586976E0,-9.349820620E-1,7.271622655E0
2.441575083E0,5.031075910E0,3.335916052E0,-4.149628615E-1,6.050806136E0
2.451629083E0,3.519267193E0,2.627853320E0,-9.395890832E-3,4.392145595E0
2.461683083E0,2.454532492E-1,5.815076432E-1,-5.219169874E-2,6.333422535E-1
2.471737083E0,-4.018279687E0,-2.562563602E0,2.526523046E-1,4.772539894E0
2.481792083E0,-9.599346455E0,-7.114004399E0,1.096744114E0,1.199830649E1
2.491846083E0,-1.600491448E1,-1.180570850E1,2.075011944E0,1.999594247E1
2.501900083E0,-2.186710135E1,-1.506441557E1,3.691561249E0,2.680922159E1
2.511955083E0,-2.497879071E1,-1.605077303E1,6.988612028E0,3.050259003E1
2.522009083E0,-2.441209494E1,-1.500210063E1,1.002357189E1,3.035597793E1
2.532063083E0,-2.580727568E1,-1.589424774E1,1.086712981E1,3.219840213E1
2.542117083E0,-2.893916601E1,-1.817316262E1,1.083898365E1,3.585000328E1
2.552172083E0,-2.700280441E1,-1.650313234E1,9.321285038E0,3.299077413E1
2.562226083E0,-2.277942837E1,-1.410086694E1,6.782128133E0,2.763573895E1
2.572280083E0,-1.985350739E1,-1.155591778E1,4.304913121E0,2.337163384E1
2.582334083E0,-1.681394928E1,-9.038273953E0,1.771102910E0,1.917123084E1
2.592389083E0,-1.352284862E1,-6.124197088E0,-1.922798395E-1,1.484621825E1
2.602443083E0,-9.092761817E0,-3.386397988E0,-9.688450420E-1,9.751136832E0
2.612497083E0,-3.929807221E0,-7.616091943E-1,-1.028791866E0,4.133019001E0
2.622552083E0,3.444308227E-1,1.417558617E0,-1.301363332E0,1.954904485E0
2.632606083E0,2.967956033E0,2.807464874E0,-1.810258205E0,4.468518413E0
2.642660083E0,5.299422178E0,3.570044121E0,-2.161220952E0,6.745366295E0
2.652714083E0,7.839725137E0,4.356229163E0,-2.758438017E0,9.383336456E0
2.662769083E0,9.905676820E0,5.509938898E0,-3.489532932E0,1.185996206E1
2.672823083E0,1.155259890E1,6.934755664E0,-4.460348486E0,1.419324086E1
2.682877083E0,1.264210475E1,7.900936714E0,-5.328769938E0,1.583172140E1
2.692931083E0,1.293613900E1,8.070182617E0,-5.493929806E0,1.620662841E1
2.702986083E0,1.249016017E1,7.847093799E0,-5.379247196E0,1.570086885E1
2.713040083E0,1.201293850E1,7.472643955E0,-5.038794234E0,1.501800740E1
2.723094083E0,1.171345698E1,7.188179837E0,-4.285433123E0,1.439583067E1
2.733149083E0,1.108169690E1,6.796143909E0,-3.703177328E0,1.351684506E1
2.743203083E0,1.010277477E1,6.269236103E0,-2.972014001E0,1.225570261E1
2.753257083E0,9.059556064E0,5.792100967E0,-1.866290903E0,1.091361679E1
2.763311083E0,8.561722954E0,5.595038690E0,-8.445466858E-1,1.026259309E1
2.773366083E0,8.106621296E0,5.482705491E0,-3.046469522E-1,9.791331784E0
2.783420083E0,7.346148800E0,5.400622863E0,-4.981736373E-4,9.117709677E0
2.793474083E0,6.663557124E0,5.350284183E0,2.484599240E-1,8.549284574E0
2.803529083E0,6.089804935E0,5.402028533E0,3.494377935E-1,8.147990132E0
2.813583083E0,5.958022728E0,5.785598279E0,3.571806765E-1,8.312566409E0
2.823637083E0,5.773825495E0,6.153110400E0,3.475725682E-1,8.445036124E0
2.833691083E0,5.435350061E0,6.434722831E0,2.839478818E-1,8.427889095E0
2.843749875E0,5.295701594E0,6.816558877E0,4.950837493E-2,8.632055455E0
2.853803875E0,5.334610721E0,7.389658517E0,-4.936292544E-3,9.114008389E0
2.863857875E0,5.419244490E0,7.776974573E0,6.367267013E-2,9.479113807E0
2.873911875E0,5.916501065E0,7.924336102E0,2.512279594E-1,9.892583232E0
2.883966875E0,6.398530321E0,7.803766515E0,3.965371156E-1,1.009936650E1
2.894020875E0,6.376185186E0,7.263062789E0,4.614482260E-1,9.675781781E0
2.904074875E0,6.238461623E0,6.871180642E0,4.516214684E-1,9.291689232E0
2.914129875E0,5.870876995E0,6.618440593E0,2.254827420E-1,8.849960172E0
2.924183875E0,5.126003117E0,5.974115435E0,-1.314734745E-1,7.872944078E0
2.934237875E0,3.919268784E0,5.196262676E0,-5.706951912E-1,6.533567677E0
2.944291875E0,1.995376959E0,4.086797944E0,-1.244564649E0,4.715123308E0
2.954346875E0,-1.292822889E0,1.489045214E0,-1.943023914E0,2.768390977E0
2.964400875E0,-6.402557298E0,-2.498093079E0,-2.129242530E0,7.194920621E0
2.974454875E0,-1.338280781E1,-7.820596556E0,-1.670741301E0,1.559014598E1
2.984509875E0,-2.065326849E1,-1.270294737E1,-7.844617210E-2,2.424723747E1
2.994563875E0,-2.717015406E1,-1.617932640E1,2.806802677E0,3.174690561E1
3.004617875E0,-3.067186440E1,-1.847577240E1,7.390727388E0,3.656145899E1
3.014671875E0,-2.953067970E1,-1.914620713E1,1.051282830E1,3.673088414E1
3.024726875E0,-3.001696690E1,-2.037003405E1,1.183979426E1,3.815936735E1
3.034780875E0,-2.866626242E1,-1.998568019E1,1.146415743E1,3.677783190E1
3.044834875E0,-2.445919777E1,-1.763740564E1,8.249082273E0,3.126304195E1
3.054888875E0,-2.036917334E1,-1.560315464E1,4.345116237E0,2.602386774E1
3.064943875E0,-1.673393364E1,-1.342095738E1,1.066518102E0,2.147752530E1
3.074997875E0,-1.332324339E1,-1.055935226E1,-1.983611777E0,1.711559086E1
3.085051875E0,-8.916800972E0,-6.519037342E0,-4.578200871E0,1.195688549E1
3.095106875E0,-4.372884665E0,-2.045041163E0,-6.062246423E0,7.749525492E0
3.105160875E0,-6.981364989E-1,2.066207791E0,-6.548060582E0,6.901717655E0
3.115214875E0,2.411878223E0,5.100542586E0,-5.979022418E0,8.220790735E0
3.125268875E0,4.812475414E0,7.055395417E0,-4.736905999E0,9.766104778E0
3.135323875E0,6.478497427E0,8.004077505E0,-3.880985309E0,1.100446421E1
3.145377875E0,7.882071843E0,8.135262712E0,-3.263595350E0,1.178815552E1
3.155431875E0,9.030691284E0,8.041703753E0,-3.045236344E0,1.246979746E1
3.165485875E0,1.005533981E1,7.964470221E0,-3.031443931E0,1.318075480E1
3.175540875E0,1.094465220E1,7.659444369E0,-3.032390596E0,1.369846314E1
3.185594875E0,1.158921417E1,7.240656259E0,-3.495999368E0,1.410528269E1
3.195648875E0,1.165441296E1,6.487779297E0,-4.046994193E0,1.393896638E1
3.205703875E0,1.134698741E1,6.091725161E0,-4.335696958E0,1.358902156E1
3.215757875E0,1.091682179E1,5.372033486E0,-4.416594940E0,1.294380364E1
3.225811875E0,1.079347361E1,4.947632049E0,-4.232029333E0,1.260508658E1
3.235865875E0,1.063795755E1,4.532006114E0,-4.208538144E0,1.230516207E1
3.245920875E0,1.011919375E1,4.166984906E0,-3.944207159E0,1.163265298E1
3.255974875E0,9.586572043E0,4.216480709E0,-3.591928788E0,1.107172189E1
3.266028875E0,8.941028910E0,4.360547040E0,-3.346437532E0,1.049547582E1
3.276082875E0,8.248681154E0,4.669512745E0,-2.972938446E0,9.933954553E0
3.286137875E0,7.786379235E0,5.091498697E0,-2.183153858E0,9.556004465E0
3.296191875E0,7.457721861E0,5.459476258E0,-1.346951734E0,9.340116452E0
3.306245875E0,7.086013777E0,5.821144672E0,-8.514189184E-1,9.209898518E0
3.316300875E0,6.593331479E0,6.141439358E0,-6.136383855E-1,9.031381370E0
3.326354875E0,6.588449639E0,6.605035851E0,-7.709378421E-1,9.361010223E0
3.336408875E0,6.714981632E0,6.950218041E0,-1.171315409E0,9.734910833E0
3.346462875E0,6.852226893E0,6.990466765E0,-1.353680710E0,9.881907227E0
3.356517875E0,6.962731667E0,6.743541187E0,-1.310507208E0,9.781227385E0
3.366571875E0,6.988898542E0,6.359534655E0,-1.147028341E0,9.518616384E0
3.376625875E0,7.218459059E0,6.001059405E0,-9.855317529E-1,9.438757228E0
3.386680875E0,7.337319505E0,5.572161459E0,-8.326528645E-1,9.250867615E0
3.396734875E0,7.409806268E0,5.168068571E0,-7.374789047E-1,9.064107061E0
3.406788875E0,7.222066206E0,4.718495163E0,-5.926432999E-1,8.647176590E0
3.416842875E0,6.336992469E0,4.312951581E0,-6.434954381E-1,7.692406078E0
3.426897875E0,5.009824204E0,3.286025854E0,-1.047787131E0,6.082282659E0
3.436951875E0,2.719772719E0,1.598412705E0,-1.324470359E0,3.421448312E0
3.447005875E0,-1.193352395E0,-1.155107512E0,-1.333966237E0,2.130218117E0
3.457059875E0,-7.519671941E0,-5.670435027E0,-1.189568077E0,9.492858985E0
3.467114875E0,-1.589232050E1,-1.184075320E1,-1.911010043E-1,1.981932912E1
3.477168875E0,-2.310322145E1,-1.783360194E1,2.922196308E0,2.933147509E1
3.487222875E0,-2.458589524E1,-2.032317212E1,7.050320034E0,3.266809732E1
3.497277875E0,-2.241341840E1,-2.079620953E1,1.018122920E1,3.222578289E1
3.507331875E0,-2.446019882E1,-2.327416363E1,1.077164478E1,3.544032096E1
3.517385875E0,-2.909363307E1,-2.638492679E1,1.062468554E1,4.068768598E1
3.527439875E0,-2.788401489E1,-2.449389281E1,9.530160445E0,3.831831194E1
3.537494875E0,-2.290516222E1,-1.910862708E1,7.608605168E0,3.078436223E1
3.547548875E0,-1.996161539E1,-1.538167146E1,5.795664260E0,2.585829906E1
3.557602875E0,-1.791421751E1,-1.254643962E1,4.288697623E0,2.228733415E1
3.567656875E0,-1.493805958E1,-8.605579410E0,2.535915209E0,1.742505343E1
3.577711875E0,-1.156212168E1,-4.018760035E0,8.317477886E-1,1.226885872E1
3.587765875E0,-6.940088909E0,9.406073758E-1,-4.867561448E-1,7.020435018E0
3.597819875E0,-2.356934862E0,5.494393491E0,-1.437036277E0,6.148867785E0
3.607874875E0,1.408547473E0,8.439537781E0,-1.702000515E0,8.723910230E0
3.617928875E0,4.330263725E0,1.001230898E1,-1.809755344E0,1.105770001E1
3.627982875E0,6.795259225E0,1.060121014E1,-2.038276227E0,1.275600934E1
3.638036875E0,8.649604851E0,1.035759408E1,-2.507600652E0,1.372528617E1
3.648091875E0,9.753511804E0,9.524303874E0,-3.148767729E0,1.399135787E1
3.658145875E0,1.041006349E1,8.471483459E0,-3.737730864E0,1.393219602E1
3.668199875E0,1.068232505E1,7.405132588E0,-4.102468482E0,1.363005153E1
3.678253875E0,1.069886332E1,6.461751001E0,-4.281694413E0,1.321184353E1
3.688308875E0,1.055281507E1,5.888399346E0,-4.276508517E0,1.281887975E1
3.698362875E0,1.011418151E1,5.509213843E0,-4.055622345E0,1.221049456E1
3.708416875E0,9.406079021E0,5.098263926E0,-3.589653051E0,1.128504438E1
3.718471875E0,8.546408511E0,4.720468014E0,-2.920884193E0,1.019095095E1
3.728525875E0,7.801239933E0,4.733161442E0,-2.120678113E0,9.368000715E0
3.738579875E0,7.231470868E0,4.917216003E0,-1.385813498E0,8.854019606E0
3.748633875E0,6.790943980E0,4.980705070E0,-6.948994803E-1,8.450279784E0
3.758688875E0,6.295504135E0,4.941203036E0,-1.724106353E-2,8.003071723E0
3.768742875E0,6.111884606E0,5.050385170E0,5.363639224E-1,7.946647725E0
3.778796875E0,6.083263071E0,5.159619929E0,8.827354360E-1,8.025396517E0
3.788850875E0,6.007055724E0,5.161898589E0,1.023805361E0,7.986118765E0
3.798905875E0,5.985996977E0,5.225523312E0,1.038312303E0,8.013510225E0
3.808959875E0,6.087475405E0,5.337192267E0,9.940021026E-1,8.156654846E0
3.819013875E0,6.331765643E0,5.579606718E0,9.172878027E-1,8.489092072E0
3.829068875E0,6.665023606E0,5.792051266E0,7.963241136E-1,8.865919559E0
3.839122875E0,6.988541862E0,5.865604561E0,6.326336503E-1,9.145778237E0
3.849176458E0,7.323997793E0,5.992554045E0,3.333029866E-1,9.469041057E0
3.859230458E0,7.480270479E0,6.178355169E0,-2.910556841E-1,9.706247083E0
3.869285458E0,7.546736364E0,6.473860000E0,-7.755501258E-1,9.973242754E0
3.879339458E0,7.851728302E0,7.131991603E0,-9.492312149E-1,1.064969396E1
3.889393458E0,8.135650383E0,7.735333627E0,-1.071393437E0,1.127705978E1
3.899448458E0,8.430158263E0,7.988204069E0,-9.717522776E-1,1.165432431E1
3.909502458E0,8.681264015E0,8.036980373E0,-6.421809840E-1,1.184777594E1
3.919556458E0,8.840306527E0,7.772276920E0,-2.672877392E-2,1.177115213E1
3.929610458E0,8.861849424E0,7.087950960E0,7.633072257E-1,1.137339272E1
3.939665458E0,8.738207125E0,6.338083559E0,1.469105916E0,1.089430306E1
3.949719458E0,7.872192972E0,5.713799148E0,1.768800277E0,9.886737445E0
3.959773458E0,5.508201690E0,4.607829883E0,2.125198596E0,7.489249038E0
3.969827458E0,2.188745551E0,3.270824262E0,2.139113799E0,4.479364496E0
3.979882458E0,-2.167356436E0,1.750137134E0,6.322220063E-1,2.856592125E0
3.989936458E0,-8.368657833E0,-1.339036943E0,-2.548135890E0,8.849884201E0
3.999990458E0,-2.102051106E1,-1.020835677E1,-4.095243663E0,2.372432199E1
4.010045458E0,-3.867314285E1,-2.380881432E1,-1.939637645E-1,4.541485703E1
4.020099458E0,-4.287776803E1,-3.093435761E1,6.406462069E0,5.325861647E1
4.030153458E0,-3.579960122E1,-2.436550433E1,1.071686339E1,4.461098979E1
4.040207458E0,-3.394348213E1,-1.997561128E1,1.044976959E1,4.074779393E1
4.050262458E0,-3.098561664E1,-1.604239514E1,6.034496123E0,3.541019661E1
4.060316458E0,-2.587086298E1,-1.077994666E1,-1.236469764E0,2.805419147E1
4.070370458E0,-2.444990772E1,-1.029443948E1,-6.832524115E0,2.739446764E1
4.080424458E0,-2.419145143E1,-1.113914696E1,-7.822332594E0,2.775780619E1
4.090479458E0,-2.157325771E1,-9.173779083E0,-6.799808943E0,2.440903670E1
4.100533458E0,-1.644329895E1,-5.597386932E0,-4.618813877E0,1.797348777E1
4.110587458E0,-1.076012577E1,-2.123127512E0,-1.174978105E0,1.103034680E1
4.120641458E0,-5.897933816E0,1.040430164E0,1.720028651E0,6.231100769E0
4.130696458E0,-1.947205843E0,3.831899688E0,2.912487592E0,5.192075672E0
4.140750458E0,8.813554931E-1,5.706890078E0,2.568846728E0,6.320154696E0
4.150804458E0,3.337893580E0,6.916399500E0,1.491308963E0,7.823178255E0
4.160859458E0,5.494701639E0,7.549968705E0,-9.307480931E-2,9.338224481E0
4.170913458E0,6.987272431E0,7.338463220E0,-1.638937710E0,1.026455724E1
4.180967458E0,8.417332395E0,6.759398251E0,-2.576490208E0,1.109861483E1
4.191021458E0,1.001830004E1,6.190899786E0,-3.082649753E0,1.217359049E1
4.201076458E0,1.130268657E1,5.369094091E0,-3.415348138E0,1.297083258E1
4.211130458E0,1.206024247E1,4.089202612E0,-3.627191007E0,1.324113066E1
4.221184458E0,1.246917452E1,2.775852780E0,-3.624358031E0,1.327861600E1
4.231238458E0,1.260837216E1,1.871851605E0,-3.529387554E0,1.322616549E1
4.241293458E0,1.224066884E1,1.429425541E0,-3.380898682E0,1.277919038E1
4.251347458E0,1.145145728E1,1.326711889E0,-2.916746703E0,1.189131824E1
4.261401458E0,1.094915689E1,1.581349945E0,-2.195872137E0,1.127858851E1
4.271456458E0,1.072875896E1,2.090331356E0,-1.661342486E0,1.105603061E1
4.281510458E0,1.055744724E1,2.448589090E0,-1.448342453E0,1.093402838E1
4.291564458E0,1.027777024E1,2.478416322E0,-1.412400203E0,1.066630127E1
4.301618458E0,9.812525997E0,2.351121267E0,-1.320749191E0,1.017633608E1
4.311673458E0,9.173248156E0,2.338288091E0,-1.222638760E0,9.545203951E0
4.321727458E0,8.682533446E0,2.615895764E0,-1.038115836E0,9.127265865E0
4.331781458E0,8.391456712E0,2.922577547E0,-6.663469416E-1,8.910781308E0
4.341836458E0,8.233046869E0,3.205893272E0,-1.840563337E-1,8.837119958E0
4.351890458E0,8.303702284E0,3.438663910E0,2.880624944E-1,8.992155532E0
4.361944458E0,8.419158481E0,3.450246075E0,5.621975058E-1,9.116056907E0
4.371998458E0,8.321640372E0,3.198177286E0,7.831813270E-1,8.949380394E0
4.382053458E0,8.063003406E0,2.947785478E0,1.037221797E0,8.647386438E0
4.392107458E0,7.757791028E0,2.978593288E0,1.311712904E0,8.412843179E0
4.402161458E0,7.538459045E0,3.326999048E0,1.599245056E0,8.393740060E0
4.412215458E0,7.741449230E0,3.889825130E0,1.928245661E0,8.875748253E0
4.422270458E0,8.083435332E0,4.506285381E0,2.086617497E0,9.486965125E0
4.432324458E0,8.237517650E0,4.787061076E0,1.914014708E0,9.717823989E0
4.442378458E0,8.438439674E0,4.723815837E0,1.797613016E0,9.836316015E0
4.452433458E0,8.674892305E0,4.794950139E0,1.936744004E0,1.009932080E1
4.462487458E0,8.816641091E0,4.979526272E0,2.168560377E0,1.035526417E1
4.472541458E0,8.938452042E0,4.990913724E0,2.345161493E0,1.050261525E1
4.482595458E0,9.135988528E0,4.632813866E0,2.460066297E0,1.053476041E1
4.492650458E0,9.128434510E0,4.041946877E0,2.207912139E0,1.022450621E1
4.502704458E0,8.542210211E0,3.063190804E0,1.952582942E0,9.282514386E0
4.512758458E0,7.301425202E0,2.081312903E0,1.588392624E0,7.756652919E0
4.522812458E0,5.762431026E0,1.568361817E0,6.009967053E-1,6.002213521E0
4.532867458E0,3.843342104E0,1.253008613E0,-1.015970092E0,4.168153589E0
4.542921458E0,1.208294370E0,1.273085613E0,-2.662833703E0,3.189264114E0
4.552975458E0,-2.219341106E0,8.574485672E-1,-4.498807962E0,5.089200927E0
4.563030458E0,-1.187776958E1,-4.604505740E0,-6.417068918E0,1.426399863E1
4.573084458E0,-2.638464847E1,-1.555984080E1,-2.981332709E0,3.077574800E1
4.583138458E0,-3.243576355E1,-2.014991210E1,3.041345022E0,3.830597204E1
4.593192458E0,-2.551705030E1,-1.400433058E1,5.948156136E0,2.970894970E1
4.603247458E0,-2.275596233E1,-1.436688719E1,7.801585504E0,2.801974313E1
4.613301458E0,-2.496320905E1,-1.803502566E1,5.952180190E0,3.136642163E1
4.623355458E0,-2.288011743E1,-1.584164151E1,-2.109687102E-1,2.782987400E1
4.633409458E0,-2.059785326E1,-1.244978866E1,-6.835032570E0,2.501972156E1
4.643464458E0,-2.093746189E1,-1.208129946E1,-9.488628842E0,2.596861922E1
4.653518458E0,-2.251410511E1,-1.136948867E1,-8.852490370E0,2.673044682E1
4.663572458E0,-2.267758859E1,-1.036292441E1,-6.353558800E0,2.572996183E1
4.673626458E0,-2.208251979E1,-8.995985720E0,-2.680779977E0,2.399483321E1
4.683681458E0,-2.094795647E1,-7.072122547E0,1.729052074E0,2.217704711E1
4.693735458E0,-1.847406969E1,-4.485288615E0,5.418624101E0,1.976791724E1
4.703789458E0,-1.430371387E1,-1.169525576E0,7.288733236E0,1.609626207E1
4.713844458E0,-9.771575607E0,1.974812887E0,6.868810766E0,1.210636763E1
4.723898458E0,-5.527920840E0,4.231690779E0,4.915127378E0,8.521947712E0
4.733952458E0,-1.514281504E0,5.895521840E0,2.299835047E0,6.506878474E0
4.744006458E0,2.367869740E0,7.351210735E0,3.509148002E-2,7.723233635E0
4.754061458E0,5.556517233E0,8.044896333E0,-1.391606920E0,9.875819490E0
4.764115458E0,7.323089136E0,7.806519384E0,-2.047643466E0,1.089780818E1
4.774169458E0,7.996657389E0,7.198154018E0,-2.069448903E0,1.095639400E1
4.784223458E0,8.418649773E0,6.891250625E0,-1.715189495E0,1.101384920E1
4.794278458E0,9.201716495E0,7.030354131E0,-1.181289589E0,1.164014221E1
4.804332458E0,1.010487742E1,7.067018512E0,-7.649959016E-1,1.235461522E1
4.814386458E0,1.068888914E1,6.570602183E0,-7.262978590E-1,1.256792237E1
4.824440458E0,1.057774175E1,5.662115609E0,-1.246767880E0,1.206244602E1
4.834495458E0,1.024885458E1,4.684859932E0,-1.670413857E0,1.139198031E1
4.844546708E0,9.982642550E0,3.972739817E0,-1.798057989E0,1.089352223E1
4.854600708E0,9.625354870E0,3.500292394E0,-1.644794866E0,1.037327592E1
4.864655708E0,9.165661393E0,3.211005492E0,-1.371635170E0,9.808225532E0
4.874709708E0,8.727065256E0,3.187941150E0,-8.042605394E-1,9.325849654E0
4.884763708E0,8.367135803E0,3.232119788E0,-6.195591847E-2,8.969916299E0
4.894817708E0,8.085223410E0,3.306433221E0,4.746863222E-1,8.748066377E0
4.904872708E0,7.957859944E0,3.497375218E0,7.109173429E-1,8.721500545E0
4.914926708E0,7.786211420E0,3.763656249E0,8.035688138E-1,8.685385396E0
4.924980708E0,7.632825505E0,4.033840297E0,8.915705788E-1,8.679100807E0
4.935034708E0,7.863216326E0,4.445496558E0,7.713950944E-1,9.065741064E0
4.945089708E0,7.994066488E0,5.033437600E0,6.180319834E-1,9.466919067E0
4.955143708E0,8.082369969E0,5.556512555E0,5.088422843E-1,9.821326619E0
4.965197708E0,8.131686555E0,6.002725276E0,4.000033816E-1,1.011518856E1
4.975252708E0,8.088932299E0,6.343626135E0,3.670905375E-1,1.028626141E1
4.985306708E0,7.893141791E0,6.475736956E0,5.277170599E-1,1.022327451E1
4.995360708E0,7.738983459E0,6.591580823E0,7.157857347E-1,1.019083667E1
5.005414708E0,7.685106044E0,6.739955674E0,7.971613618E-1,1.025296658E1
5.015469708E0,7.359234284E0,6.472455499E0,1.252297007E0,9.880245808E0
5.025523708E0,7.130854320E0,6.695964147E0,1.170783239E0,9.851687804E0
5.035577708E0,7.677836201E0,7.338090168E0,1.410861801E0,1.071388198E1
5.045631708E0,8.141789374E0,7.221175091E0,1.742158023E0,1.102130748E1
5.055686708E0,8.177041068E0,6.679372673E0,1.961406391E0,1.073895409E1
5.065740708E0,8.258528450E0,6.136231243E0,2.030400027E0,1.048709446E1
5.075794708E0,8.136423385E0,5.616826000E0,1.869782860E0,1.006211746E1
5.085849708E0,7.733184775E0,4.959710643E0,1.771892284E0,9.356306894E0
5.095903708E0,7.368904409E0,4.042861674E0,1.973478552E0,8.633660886E0
5.105957708E0,6.910223086E0,3.110520507E0,1.612725227E0,7.747735384E0
5.116011708E0,5.983503140E0,2.015991903E0,6.473686337E-1,6.347095345E0
5.126066708E0,4.289153121E0,6.605801252E-1,-7.299804354E-1,4.400689950E0
5.136120708E0,1.872962576E-1,-1.518896419E0,-3.243870353E0,3.586756346E0
5.146174708E0,-1.010938446E1,-7.997523361E0,-5.369526200E0,1.396394807E1
5.156228708E0,-2.496607185E1,-1.942116075E1,-9.921368408E-1,3.164601972E1
5.166283708E0,-3.193862158E1,-2.715743754E1,5.995193478E0,4.235025746E1
5.176337708E0,-2.661938845E1,-2.410577803E1,9.817721833E0,3.722993470E1
5.186391708E0,-2.225725798E1,-1.969080744E1,1.114825225E1,3.173951730E1
5.196446708E0,-2.182951311E1,-1.884181161E1,8.734325159E0,3.013021645E1
5.206500708E0,-2.062608362E1,-1.660761624E1,3.174856836E0,2.667073225E1
5.216554708E0,-1.918067530E1,-1.346594118E1,-4.645951974E0,2.389172967E1
5.226608708E0,-1.872038131E1,-1.178030351E1,-9.918340720E0,2.424049731E1
5.236663708E0,-1.960863769E1,-1.168491438E1,-1.036085566E1,2.506757320E1
5.246717708E0,-2.038426851E1,-1.150699530E1,-9.027610971E0,2.508838582E1
5.256771708E0,-2.021461973E1,-1.072848063E1,-6.749430503E0,2.385971416E1
5.266825708E0,-1.875882091E1,-9.627061672E0,-3.996167271E0,2.146026634E1
5.276880708E0,-1.547973395E1,-7.070949011E0,-1.014313064E0,1.704844022E1
5.286934708E0,-1.066033134E1,-2.570643869E0,1.319445262E0,1.104499026E1
5.296988708E0,-6.002712997E0,1.766538866E0,2.503209393E0,6.739382773E0
5.307042708E0,-2.570081660E0,4.638156759E0,2.387669581E0,5.815391980E0
5.317097708E0,1.645874262E-2,6.279405581E0,1.395482454E0,6.432618178E0
5.327151708E0,2.363155714E0,7.133167478E0,4.136459955E-1,7.525801367E0
5.337205708E0,4.318607885E0,7.286355173E0,-4.529101217E-1,8.482126700E0
5.347260708E0,6.303522422E0,7.109775692E0,-1.291009083E0,9.589056771E0
5.357314708E0,8.243923275E0,6.577534057E0,-2.599439360E0,1.086201225E1
5.367368708E0,9.545871329E0,5.947082003E0,-3.959544990E0,1.192348273E1
5.377422708E0,1.030960949E1,5.746502625E0,-4.757316874E0,1.272565928E1
5.387477708E0,1.075098072E1,5.780772572E0,-4.734525597E0,1.309261817E1
5.397531708E0,1.070553031E1,5.780396011E0,-4.320225810E0,1.291068195E1
5.407585708E0,1.053266674E1,5.748262637E0,-3.555663772E0,1.251488461E1
5.417640708E0,1.034973075E1,5.717945409E0,-2.515071055E0,1.208873065E1
5.427694708E0,9.853477557E0,5.544987109E0,-1.464377857E0,1.140097823E1
5.437748708E0,9.252836362E0,5.114120990E0,-6.219116110E-1,1.059037243E1
5.447802708E0,8.769175149E0,4.544784034E0,-1.295053109E-1,9.877766262E0
5.457857708E0,8.351405039E0,4.011279692E0,-2.218433619E-3,9.264790112E0
5.467911708E0,7.932491214E0,3.703726089E0,-6.834108710E-2,8.754808639E0
5.477965708E0,7.704488395E0,3.689869065E0,-1.219536227E-1,8.543368647E0
5.488019708E0,7.601129503E0,3.849669376E0,-5.137714505E-2,8.520549491E0
5.498074708E0,7.649011182E0,4.124192643E0,1.836423326E-1,8.691953838E0
5.508128708E0,7.803550753E0,4.470536674E0,5.117529917E-1,9.007940588E0
5.518182708E0,7.908738070E0,4.838166325E0,7.494154108E-1,9.301484543E0
5.528236708E0,7.979302853E0,5.170064226E0,9.048554528E-1,9.550790622E0
5.538291708E0,8.106986747E0,5.530073200E0,9.798752296E-1,9.862306991E0
5.548345708E0,8.259112587E0,5.954275247E0,8.278452837E-1,1.021526614E1
5.558399708E0,8.469459153E0,6.472415153E0,5.868148685E-1,1.067559122E1
5.568454708E0,8.784535199E0,6.956693248E0,4.724082470E-1,1.121547187E1
5.578508708E0,9.136628798E0,7.297328643E0,5.434519172E-1,1.170573924E1
5.588562708E0,9.376490355E0,7.427943746E0,5.702274871E-1,1.197572875E1
5.598616708E0,9.374943182E0,7.284038506E0,5.217318499E-1,1.188355926E1
5.608671708E0,9.225835090E0,6.918970520E0,5.167360254E-1,1.154362171E1
5.618725708E0,9.140251733E0,6.445072403E0,6.258999968E-1,1.120155841E1
5.628779708E0,9.072128747E0,5.683908767E0,7.939618385E-1,1.073502279E1
5.638834708E0,9.086191301E0,4.747367837E0,9.535838091E-1,1.029590675E1
5.648888708E0,8.864080721E0,3.733160681E0,8.398554647E-1,9.654728008E0
5.658942708E0,7.399899915E0,2.260159349E0,6.271758592E-1,7.762743625E0
5.668996708E0,5.370182843E0,6.434667867E-1,5.118278360E-1,5.432759980E0
5.679051708E0,2.964089854E0,-1.027326554E-1,-2.102132499E-1,2.973309986E0
5.689105708E0,-1.238895773E0,-8.895869109E-1,-1.978833432E0,2.498401361E0
5.699159708E0,-1.074657660E1,-6.601774859E0,-3.553395052E0,1.310339484E1
5.709213708E0,-2.185692485E1,-1.500384076E1,-2.001897190E0,2.658661306E1
5.719268708E0,-2.922627131E1,-1.950764692E1,9.118487227E-1,3.515045791E1
5.729322708E0,-2.846975621E1,-1.654339861E1,5.835631149E0,3.344047917E1
5.739376708E0,-2.627816599E1,-1.082986668E1,9.478045381E0,2.996099739E1
5.749430708E0,-2.614303450E1,-8.323376411E0,1.058164536E1,2.940591890E1
5.759485708E0,-2.484728683E1,-7.135016953E0,8.406888099E0,2.718403755E1
5.769539708E0,-2.385225679E1,-7.504588464E0,3.675701262E0,2.527369743E1
5.779593708E0,-2.354337879E1,-1.044532337E1,-6.754699867E-2,2.575655310E1
5.789648708E0,-2.282098336E1,-1.321598090E1,-2.540026971E0,2.649360621E1
5.799702708E0,-2.131898101E1,-1.377343105E1,-4.159573560E0,2.571980572E1
5.809756708E0,-1.848783170E1,-1.244249718E1,-4.380973703E0,2.271141976E1
5.819810708E0,-1.451428263E1,-9.975175656E0,-3.131801448E0,1.788789283E1
5.829865708E0,-9.943178523E0,-6.916267937E0,-9.428249323E-1,1.214868224E1
5.839919708E0,-5.325842822E0,-3.680832486E0,1.235243018E0,6.590823534E0
5.849973958E0,-1.636837390E0,-1.033725747E0,2.581882510E0,3.227064124E0
5.860027958E0,7.568290955E-1,8.041693228E-1,2.852545445E0,3.058838684E0
5.870082958E0,2.321486701E0,2.055857635E0,2.055097497E0,3.720117853E0
5.880136958E0,3.833627540E0,3.047984243E0,6.542157233E-1,4.941144227E0
5.890190958E0,5.445524801E0,3.790331247E0,-8.678074944E-1,6.691295926E0
5.900245958E0,6.998410792E0,4.281490345E0,-2.421019176E0,8.553960898E0
5.910299958E0,8.557857360E0,4.720671204E0,-3.811762462E0,1.049052869E1
5.920353958E0,1.008179262E1,5.226213284E0,-4.728308837E0,1.230092485E1
5.930407958E0,1.099385535E1,5.478168637E0,-5.072784099E0,1.328940652E1
5.940462958E0,1.137381327E1,5.374651870E0,-4.859526204E0,1.348575196E1
5.950516958E0,1.143508156E1,5.002515770E0,-4.185695996E0,1.316458527E1
5.960570958E0,1.108198809E1,4.446734121E0,-3.493063481E0,1.244127794E1
5.970624958E0,1.066968103E1,3.923399549E0,-2.731583510E0,1.169173665E1
5.980679958E0,1.035856940E1,3.568687860E0,-2.017917391E0,1.114035384E1
5.990733958E0,9.982915031E0,3.369988947E0,-1.514565679E0,1.064468540E1
6.000787958E0,9.601942618E0,3.356239512E0,-1.105108629E0,1.023146670E1
6.010842958E0,9.288035431E0,3.478114782E0,-8.247877747E-1,9.952143461E0
6.020896958E0,9.005056506E0,3.727932977E0,-6.796756697E-1,9.769876456E0
6.030950958E0,8.598173327E0,3.901108209E0,-4.916584869E-1,9.454573385E0
6.041004958E0,8.196400030E0,4.007921052E0,-2.802243018E-1,9.128139474E0
6.051059958E0,7.886209332E0,4.169887171E0,-2.867831602E-1,8.925385215E0
6.061113958E0,7.760756736E0,4.338844806E0,-1.594985944E-1,8.892713825E0
6.071167958E0,7.668972992E0,4.637891295E0,-1.784383106E-1,8.964096309E0
6.081222958E0,7.410261766E0,4.958072838E0,-5.155010204E-1,8.930857014E0
6.091276958E0,7.532839871E0,5.403179265E0,-3.198707994E-1,9.275793229E0
6.101330958E0,7.855306798E0,5.747538167E0,-1.032162567E-1,9.733996788E0
6.111384958E0,8.021696920E0,5.789674373E0,-2.298406352E-1,9.895492789E0
6.121439958E0,8.048386536E0,5.676612611E0,-7.279811992E-1,9.875748741E0
6.131493958E0,8.228036975E0,5.628820978E0,-9.291091186E-1,1.001236545E1
6.141547958E0,8.548920475E0,5.595833327E0,-9.246534672E-1,1.025925806E1
6.151601958E0,8.566656250E0,5.409788958E0,-9.245938987E-1,1.017390239E1
6.161656958E0,8.476136089E0,5.189144275E0,-9.036778235E-1,9.979415560E0
6.171710958E0,8.730893428E0,5.060723632E0,-9.102015620E-1,1.013251650E1
6.181764958E0,9.214111422E0,4.994172378E0,-8.037337053E-1,1.051130795E1
6.191819958E0,9.560550179E0,4.774318531E0,-6.105289093E-1,1.070378357E1
6.201873958E0,9.283834791E0,4.245603936E0,-6.844616157E-1,1.023148224E1
6.211927958E0,7.928339106E0,3.212256796E0,-6.949393145E-1,8.582545972E0
6.221981958E0,6.070961698E0,2.110048752E0,-4.767130402E-1,6.444853528E0
6.232036958E0,4.056955510E0,1.109477887E0,-5.052082763E-1,4.236161540E0
6.242090958E0,6.851580191E-1,-2.706939250E-2,-1.718314247E0,1.850075165E0
6.252144958E0,-7.396692717E0,-5.068827288E0,-3.649037958E0,9.680885871E0
6.262198958E0,-1.912581087E1,-1.410803329E1,-8.084676111E-1,2.377996772E1
6.272253958E0,-2.772470399E1,-1.898615130E1,3.673873422E0,3.380281791E1
6.282307958E0,-2.581332872E1,-1.571818925E1,7.712022532E0,3.119077916E1
6.292361958E0,-2.135879821E1,-1.130374959E1,1.096306508E1,2.653604740E1
6.302416958E0,-2.279563218E1,-1.154014784E1,1.102879480E1,2.782894488E1
6.312470958E0,-2.333998690E1,-1.202617659E1,9.172809030E0,2.781230551E1
6.322524958E0,-2.209736938E1,-1.120532575E1,3.869428872E0,2.507639405E1
6.332578958E0,-2.179129804E1,-1.120748454E1,-1.719939188E0,2.456474244E1
6.342633958E0,-2.129462151E1,-1.249462744E1,-4.933870627E0,2.517776201E1
6.352687958E0,-2.121774232E1,-1.360182813E1,-6.095259218E0,2.592979951E1
6.362741958E0,-2.100899906E1,-1.352282406E1,-5.602934185E0,2.560542294E1
6.372795958E0,-1.943495200E1,-1.204038767E1,-3.776486794E0,2.317218476E1
6.382850958E0,-1.638373220E1,-9.187282058E0,-9.466852641E-1,1.880768580E1
6.392904958E0,-1.197268042E1,-5.588382804E0,1.904599521E0,1.334925459E1
6.402958958E0,-7.350968660E0,-1.798007703E0,3.765394626E0,8.452678193E0
6.413013958E0,-3.699398273E0,1.379603463E0,4.316123403E0,5.849596100E0
6.423067958E0,-9.975361598E-1,3.743176669E0,3.695194125E0,5.353588477E0
6.433121958E0,9.753711194E-1,5.369532048E0,2.171331958E0,5.873491781E0
6.443175958E0,2.720369720E0,6.624508249E0,2.124650127E-1,7.164472230E0
6.453230958E0,4.629641751E0,7.541444049E0,-1.597575091E0,8.992174779E0
6.463284958E0,6.458823885E0,7.893888481E0,-3.150828288E0,1.067509252E1
6.473338958E0,7.951688792E0,7.788734493E0,-4.263614237E0,1.191940208E1
6.483393958E0,9.153902058E0,7.376446148E0,-4.752067829E0,1.268022197E1
6.493447958E0,1.006862235E1,6.791597114E0,-4.645430987E0,1.300319101E1
6.503501958E0,1.055832432E1,6.132199588E0,-4.148724051E0,1.289550292E1
6.513555958E0,1.073155042E1,5.444047794E0,-3.310709290E0,1.248056997E1
6.523610958E0,1.071255750E1,4.787875593E0,-2.350438020E0,1.196692106E1
6.533664958E0,1.063361190E1,4.241238112E0,-1.492400638E0,1.154508824E1
6.543718958E0,1.044860483E1,3.781090015E0,-9.416964197E-1,1.115153696E1
6.553772958E0,1.018972403E1,3.414684771E0,-6.776075826E-1,1.076799424E1
6.563827958E0,9.860350374E0,3.136631833E0,-6.186301535E-1,1.036569689E1
6.573881958E0,9.444390562E0,2.981185943E0,-7.345061072E-1,9.930935603E0
6.583935958E0,8.972257134E0,3.015293922E0,-8.527040633E-1,9.503709788E0
6.593990958E0,8.673283736E0,3.228338686E0,-8.613516567E-1,9.294619309E0
6.604044958E0,8.489739051E0,3.544394725E0,-7.746829838E-1,9.232471871E0
6.614098958E0,8.315523600E0,3.863378465E0,-6.264000068E-1,9.190538770E0
6.624152958E0,8.176772096E0,4.177768341E0,-4.277730147E-1,9.192189074E0
6.634207958E0,8.154808785E0,4.467558103E0,-1.485046595E-1,9.299571783E0
6.644261958E0,8.280075440E0,4.865085444E0,1.059316671E-1,9.604161972E0
6.654315958E0,8.353722290E0,5.421023798E0,2.254809147E-1,9.961075081E0
6.664370958E0,8.327947764E0,5.994457898E0,1.587261407E-1,1.026223336E1
6.674424958E0,8.381694201E0,6.550314683E0,-8.702122349E-2,1.063799759E1
6.684478958E0,8.418777242E0,6.963687687E0,-4.394890076E-1,1.093443675E1
6.694532958E0,8.565792616E0,7.274234480E0,-8.325095346E-1,1.126855636E1
6.704587958E0,8.781815659E0,7.539077096E0,-1.189735819E0,1.163500928E1
6.714641958E0,8.926613769E0,7.790810255E0,-1.699511940E0,1.196952374E1
6.724695958E0,9.076441653E0,7.989560623E0,-2.307527643E0,1.231014037E1
6.734749958E0,9.304262039E0,7.923733839E0,-2.546383479E0,1.248354593E1
6.744804958E0,9.308885432E0,7.376208751E0,-2.355743199E0,1.210839913E1
6.754858958E0,8.804009936E0,6.255758271E0,-1.799187672E0,1.094907205E1
6.764912958E0,7.964697677E0,4.878134968E0,-1.055497270E0,9.399291694E0
6.774967958E0,6.765084084E0,3.458253252E0,-5.275293642E-1,7.616046576E0
6.785021958E0,4.803749614E0,1.925733113E0,-2.312292393E-1,5.180533306E0
6.795075958E0,1.747907590E0,4.303378227E-1,-5.689054316E-1,1.887862542E0
6.805129958E0,-4.287694826E0,-2.870654272E0,-2.103405438E0,5.572189633E0
6.815184958E0,-1.692425817E1,-1.196363477E1,-2.603729462E0,2.088871654E1
6.825238958E0,-2.879604020E1,-2.132220634E1,1.350236115E0,3.585626238E1
6.835292958E0,-2.729826422E1,-1.842675753E1,6.793295730E0,3.362870038E1
6.845346750E0,-1.797921048E1,-6.947845241E0,7.803915035E0,2.079484678E1
6.855400750E0,-1.852417098E1,-5.021905137E0,7.774250940E0,2.070756913E1
6.865454750E0,-2.361498847E1,-1.077882867E1,9.118228780E0,2.751350440E1
6.875508750E0,-2.540515564E1,-1.328866296E1,7.842813052E0,2.972406791E1
6.885563750E0,-2.456056043E1,-1.274947132E1,4.317626138E0,2.800735694E1
6.895617750E0,-2.410780116E1,-1.407110344E1,2.109270780E0,2.799341087E1
6.905671750E0,-2.444674320E1,-1.621422142E1,8.689412695E-1,2.934790092E1
6.915725750E0,-2.382772187E1,-1.666170883E1,-8.172665012E-1,2.908678042E1
6.925780750E0,-2.121228336E1,-1.456366938E1,-2.032029646E0,2.581066787E1
6.935834750E0,-1.709197502E1,-1.083794285E1,-1.992904757E0,2.033637836E1
6.945888750E0,-1.212918465E1,-6.697614816E0,-7.452825987E-1,1.387554002E1
6.955943750E0,-6.959882904E0,-2.702414675E0,5.471146131E-1,7.486143834E0
6.965997750E0,-2.402935492E0,5.937487891E-1,9.404790294E-1,2.647855247E0
6.976051750E0,8.167349893E-1,2.791101149E0,3.962541103E-1,2.935016011E0
6.986105750E0,2.888798182E0,3.847497428E0,-5.606427312E-1,4.843832332E0
6.996160750E0,4.455571895E0,4.391410983E0,-1.655720973E0,6.471323147E0
7.006214750E0,5.799586573E0,4.701448191E0,-2.720660911E0,7.946119512E0
7.016268750E0,7.023498856E0,4.937867199E0,-3.263228145E0,9.184809556E0
7.026322750E0,8.251577280E0,5.186432337E0,-3.209091114E0,1.026089050E1
7.036377750E0,9.417545410E0,5.400011829E0,-2.876183984E0,1.123043737E1
7.046431750E0,1.020517588E1,5.379461789E0,-2.464685597E0,1.179656302E1
7.056485750E0,1.048961720E1,5.103087879E0,-2.031919718E0,1.184070406E1
7.066540750E0,1.042317879E1,4.781659710E0,-1.519511839E0,1.156787975E1
7.076594750E0,1.008954836E1,4.514224731E0,-9.994172090E-1,1.109847043E1
7.086648750E0,9.771179751E0,4.315341338E0,-4.115603667E-1,1.068959805E1
7.096702750E0,9.671991093E0,4.077726866E0,1.447215293E-1,1.049743837E1
7.106757750E0,9.481059621E0,3.766007122E0,3.895075929E-1,1.020906545E1
7.116811750E0,9.280374994E0,3.536900349E0,2.900634116E-1,9.935751652E0
7.126865750E0,9.106836065E0,3.303395885E0,-2.085177401E-2,9.687482763E0
7.136920750E0,8.915978268E0,3.059516999E0,-3.684511846E-1,9.433507779E0
7.146974750E0,8.712343721E0,2.980196595E0,-7.171352720E-1,9.235842563E0
7.157028750E0,8.532614930E0,3.045520518E0,-1.052699377E0,9.120794304E0
7.167082750E0,8.413229404E0,3.289231882E0,-1.401443106E0,9.141417732E0
7.177137750E0,8.361924765E0,3.701174364E0,-1.541042456E0,9.273364508E0
7.187191750E0,8.412613108E0,4.129584360E0,-1.309794433E0,9.462615270E0
7.197245750E0,8.494038509E0,4.468348646E0,-9.271146333E-1,9.642321886E0
7.207300750E0,8.584665089E0,4.636615725E0,-6.105136335E-1,9.775858375E0
7.217354750E0,8.703578160E0,4.764028601E0,-3.687617449E-1,9.928958985E0
7.227408750E0,8.918421235E0,4.902101828E0,-3.644219049E-1,1.018340036E1
7.237462750E0,9.078436723E0,4.938377661E0,-5.649456972E-1,1.035010874E1
7.247517750E0,9.114848505E0,5.081650817E0,-9.753202486E-1,1.048116825E1
7.257571750E0,9.290352098E0,5.567162674E0,-1.617656184E0,1.095083348E1
7.267625750E0,9.573039832E0,6.030393716E0,-2.367267476E0,1.155909578E1
7.277680750E0,9.685770056E0,6.228143041E0,-3.048135978E0,1.191197046E1
7.287734750E0,9.561440710E0,6.264670597E0,-3.488435994E0,1.195141966E1
7.297788750E0,9.303729358E0,6.181869346E0,-3.624994792E0,1.174374199E1
7.307842750E0,9.091868947E0,5.864715199E0,-3.456451725E0,1.135799383E1
7.317897750E0,8.556980862E0,5.269035952E0,-3.037603388E0,1.049817583E1
7.327951750E0,7.572285773E0,4.402805452E0,-2.376796684E0,9.075977641E0
7.338005750E0,6.470205490E0,3.566359206E0,-1.643112622E0,7.568506865E0
7.348060750E0,4.639205457E0,2.617100290E0,-1.139994798E0,5.447112018E0
7.358114750E0,1.736900792E0,1.186415843E0,-9.708723447E-1,2.316678662E0
7.368168750E0,-4.946747366E0,-2.561684181E0,-2.200873260E0,5.989689345E0
7.378222750E0,-1.778125182E1,-1.268249381E1,-1.931500806E0,2.192599509E1
7.388277750E0,-3.076933983E1,-2.217641438E1,3.508222972E0,3.809006769E1
7.398331750E0,-3.120520064E1,-1.993102509E1,9.210985501E0,3.815563605E1
7.408385750E0,-2.032993150E1,-7.423496938E0,1.098016351E1,2.426887744E1
7.418439750E0,-1.585464221E1,-2.631079521E0,1.098572889E1,1.946737009E1
7.428494750E0,-1.850252809E1,-6.336622925E0,1.083627406E1,2.235891704E1
7.438548750E0,-2.207327651E1,-1.080896171E1,8.794054466E0,2.610361245E1
7.448602750E0,-2.274610626E1,-1.279679401E1,3.696212125E0,2.635915915E1
7.458657750E0,-2.159285524E1,-1.347140014E1,-5.458253020E-1,2.545639300E1
7.468711750E0,-2.134768149E1,-1.450881314E1,-2.116979164E0,2.589808418E1
7.478765750E0,-2.162773271E1,-1.547857269E1,-1.817905194E0,2.665801594E1
7.488819750E0,-2.096922162E1,-1.489345702E1,-3.744995445E-1,2.572282192E1
7.498874750E0,-1.859069709E1,-1.227225433E1,1.788977264E0,2.234776687E1
7.508928750E0,-1.414494676E1,-8.181607744E0,3.786935184E0,1.677376231E1
7.518982750E0,-8.996928291E0,-3.574663422E0,4.835645006E0,1.082157104E1
7.529036750E0,-4.533796531E0,3.973995799E-1,4.303740755E0,6.263818476E0
7.539091750E0,-1.238533831E0,3.179258620E0,2.453306331E0,4.202423512E0
7.549145750E0,1.098329294E0,5.009614874E0,1.577163813E-1,5.131027468E0
7.559199750E0,2.693722789E0,6.001674532E0,-1.947247943E0,6.860613252E0
7.569254750E0,3.750167892E0,6.534511414E0,-3.324032755E0,8.234852299E0
7.579308750E0,4.635006571E0,6.943862118E0,-3.812904423E0,9.178166874E0
7.589362750E0,5.570072833E0,7.336109716E0,-3.615207138E0,9.895147284E0
7.599416750E0,6.606294172E0,7.962286870E0,-3.228731326E0,1.083816594E1
7.609471750E0,7.635325774E0,8.630089184E0,-2.607702060E0,1.181426041E1
7.619525750E0,8.308152015E0,9.115255471E0,-2.025701789E0,1.249866953E1
7.629579750E0,8.434585190E0,8.945495598E0,-1.607721180E0,1.239955186E1
7.639634750E0,8.471251910E0,8.186260958E0,-1.089202375E0,1.183061026E1
7.649688750E0,8.764669284E0,7.429896131E0,-8.354992890E-1,1.152045326E1
7.659742750E0,9.113591938E0,6.770176424E0,-8.893750224E-1,1.138788105E1
7.669796750E0,9.355580127E0,6.362136081E0,-1.417107797E0,1.140227388E1
7.679851750E0,9.203435576E0,5.835566829E0,-2.289667908E0,1.113551282E1
7.689905750E0,8.860715064E0,5.298514105E0,-2.643659513E0,1.065717874E1
7.699959750E0,8.558132764E0,5.274312479E0,-2.569361867E0,1.037601219E1
7.710014750E0,8.580091397E0,5.138288702E0,-2.156194686E0,1.023079443E1
7.720068750E0,8.324237121E0,4.711474411E0,-1.776283543E0,9.728622616E0
7.730122750E0,7.201907346E0,4.612964030E0,-1.561572030E0,8.693987219E0
7.740176750E0,6.523970053E0,4.710807829E0,-1.511541499E0,8.187713561E0
7.750231750E0,6.669373934E0,5.213944656E0,-1.852308456E0,8.665841804E0
7.760285750E0,7.104597398E0,5.986046094E0,-2.027041971E0,9.508782844E0
7.770339750E0,7.701506315E0,6.396431755E0,-2.068501215E0,1.022282916E1
7.780393750E0,7.861864450E0,6.548879777E0,-2.142837891E0,1.045411370E1
7.790448750E0,7.903703617E0,6.459571159E0,-2.137570865E0,1.042898843E1
7.800502750E0,8.157333612E0,6.416785913E0,-1.758127354E0,1.052654953E1
7.810556750E0,8.598990183E0,6.490660805E0,-1.562868504E0,1.088640748E1
7.820611750E0,8.889831859E0,6.342133341E0,-1.503233921E0,1.102322448E1
7.830665750E0,9.213871102E0,5.994514031E0,-1.194089144E0,1.105691946E1
7.840719750E0,9.510630745E0,5.546013880E0,-1.098477813E0,1.106422255E1
7.850774125E0,9.950239620E0,5.578029724E0,-1.260807629E0,1.147655523E1
7.860829125E0,1.026546535E1,5.483638707E0,-1.077708576E0,1.168809344E1
7.870883125E0,9.997447701E0,4.720728507E0,-9.087567151E-1,1.109324465E1
7.880937125E0,9.473050690E0,3.768751220E0,-8.896643865E-1,1.023394733E1
7.890992125E0,8.661222684E0,2.759300482E0,-1.241567366E0,9.174530345E0
7.901046125E0,7.438526621E0,1.428814215E0,-1.705690839E0,7.764185057E0
7.911100125E0,5.602207961E0,1.478526950E-2,-1.994678802E0,5.946738280E0
7.921154125E0,2.474732868E0,-1.978218305E0,-2.443100016E0,4.000798435E0
7.931209125E0,-5.645163361E0,-8.283631716E0,-2.484551513E0,1.032760476E1
7.941263125E0,-1.734142894E1,-1.651740890E1,1.008711358E0,2.397013669E1
7.951317125E0,-2.623778512E1,-1.971171942E1,5.613006599E0,3.329382967E1
7.961371125E0,-2.519241991E1,-1.687318040E1,1.254929540E1,3.281534782E1
7.971426125E0,-1.722927817E1,-1.214701749E1,1.589661820E1,2.640266143E1
7.981480125E0,-1.837176681E1,-1.256614591E1,1.511826492E1,2.690709521E1
7.991534125E0,-2.173239085E1,-1.569861043E1,1.155779942E1,2.919462124E1
8.001589125E0,-2.189633041E1,-1.557490089E1,6.105357360E0,2.755543887E1
8.011643125E0,-2.117188846E1,-1.409101087E1,3.389098817E-1,2.543462813E1
8.021697125E0,-2.143595573E1,-1.299248745E1,-2.534682031E0,2.519383935E1
8.031751125E0,-2.254549063E1,-1.284915465E1,-2.248452639E0,2.604717763E1
8.041806125E0,-2.366050086E1,-1.290584575E1,-7.041521144E-1,2.696063771E1
8.051860125E0,-2.290720641E1,-1.151868388E1,1.328564579E0,2.567460355E1
8.061914125E0,-1.980836922E1,-8.747153950E0,3.585491003E0,2.194857488E1
8.071968125E0,-1.435265272E1,-5.524762759E0,5.280829201E0,1.626065192E1
8.082023125E0,-8.500583298E0,-1.968243248E0,5.730221053E0,1.043883764E1
8.092077125E0,-4.127226178E0,1.436092244E0,3.992738464E0,5.919317300E0
8.102131125E0,-1.116513550E0,3.709730303E0,9.526189455E-1,3.989509278E0
8.112185125E0,1.064765691E0,5.184082925E0,-1.718187947E0,5.564226054E0
8.122240125E0,2.037976264E0,6.026869599E0,-3.812738362E0,7.417107134E0
8.132294125E0,3.297008094E0,6.673781565E0,-5.717960612E0,9.386410193E0
8.142348125E0,5.223851008E0,7.484267051E0,-6.790437611E0,1.137597976E1
8.152403125E0,6.325275233E0,8.115466379E0,-6.908010499E0,1.239316386E1
8.162457125E0,7.046060922E0,8.264811868E0,-6.538664106E0,1.267707451E1
8.172511125E0,7.608320408E0,8.090989934E0,-5.734636871E0,1.249946869E1
8.182565125E0,7.892643608E0,7.851418399E0,-4.907300295E0,1.216635484E1
8.192620125E0,8.158457447E0,7.723869576E0,-4.237341528E0,1.200723334E1
8.202674125E0,8.479289492E0,7.643097893E0,-3.611278394E0,1.197316280E1
8.212728125E0,8.598572107E0,7.369437675E0,-3.063328214E0,1.173149750E1
8.222783125E0,8.436601894E0,6.855452802E0,-2.709564650E0,1.120335777E1
8.232837125E0,8.351396853E0,6.351578933E0,-2.439828060E0,1.077223957E1
8.242891125E0,8.289356140E0,6.005705602E0,-2.280712459E0,1.048730539E1
8.252945125E0,8.086621479E0,5.855428652E0,-2.311269423E0,1.024799776E1
8.263000125E0,7.973664383E0,5.939239717E0,-2.420307716E0,1.023287748E1
8.273054125E0,8.020867200E0,6.194784091E0,-2.510120217E0,1.044080285E1
8.283108125E0,7.996672592E0,6.565504580E0,-2.754839056E0,1.070708929E1
8.293163125E0,7.889585515E0,6.816103964E0,-2.952123528E0,1.083604477E1
8.303217125E0,7.740752826E0,6.869343447E0,-2.993132390E0,1.077339200E1
8.313271125E0,7.624078070E0,6.850362800E0,-2.900026590E0,1.065195715E1
8.323325125E0,7.497756577E0,6.811399879E0,-2.668212849E0,1.047525092E1
8.333380125E0,7.396615534E0,6.798497998E0,-2.296922548E0,1.030559797E1
8.343434125E0,7.378135993E0,6.850944014E0,-1.755639948E0,1.022030314E1
8.353488125E0,7.189392550E0,6.738940598E0,-1.280560693E0,9.936826521E0
8.363543125E0,7.034385202E0,6.548018482E0,-8.349888271E-1,9.646570766E0
8.373597125E0,7.256818548E0,6.517322938E0,-5.214915293E-1,9.767746267E0
8.383651125E0,7.758450594E0,6.626920225E0,-4.180234404E-1,1.021197194E1
8.393705125E0,8.212804978E0,6.647636325E0,-3.357282655E-1,1.057137398E1
8.403760125E0,8.468832917E0,6.461044073E0,-3.412277180E-1,1.065751649E1
8.413814125E0,8.460646230E0,6.184451476E0,-5.089598498E-1,1.049233124E1
8.423868125E0,8.293714070E0,5.836815795E0,-7.860242432E-1,1.017211609E1
8.433923125E0,8.041321930E0,5.422845790E0,-9.908025062E-1,9.749451495E0
8.443977125E0,7.346223645E0,4.720237926E0,-9.864479385E-1,8.787532500E0
8.454031125E0,6.189004118E0,3.807392545E0,-7.778732246E-1,7.307879085E0
8.464085125E0,4.775083639E0,2.861247564E0,-7.417923957E-1,5.615907526E0
8.474140125E0,2.860293006E0,1.531401859E0,-9.660361127E-1,3.385216906E0
8.484194125E0,2.011740392E-1,-4.191140923E-1,-1.064954045E0,1.162004619E0
8.494248125E0,-4.142128977E0,-3.809399309E0,-8.474441274E-1,5.690950457E0
8.504302125E0,-1.039421870E1,-9.077431587E0,-2.814336522E-1,1.380285302E1
8.514357125E0,-1.717694910E1,-1.453310131E1,1.888670536E0,2.257931997E1
8.524411125E0,-2.089672317E1,-1.777283066E1,5.456165564E0,2.796991762E1
8.534465125E0,-2.055364130E1,-1.803871291E1,8.596720878E0,2.866619863E1
8.544520125E0,-2.080716253E1,-1.810747500E1,1.040688611E1,2.948087417E1
8.554574125E0,-2.288690721E1,-2.003434773E1,1.072622127E1,3.225271204E1
8.564628125E0,-2.433880360E1,-2.132252676E1,9.903906283E0,3.383954592E1
8.574682125E0,-2.387028025E1,-2.062535155E1,7.655278228E0,3.246226564E1
8.584737125E0,-2.253064104E1,-1.869636446E1,4.463810622E0,2.961603341E1
8.594791125E0,-2.088024571E1,-1.610601752E1,1.731051822E0,2.642697489E1
8.604845125E0,-1.883568256E1,-1.287646349E1,-2.276104707E-1,2.281749452E1
8.614900125E0,-1.637139925E1,-8.860149053E0,-1.458870950E0,1.867225908E1
8.624954125E0,-1.358140030E1,-4.670821352E0,-2.010967391E0,1.450224107E1
8.635008125E0,-1.024697880E1,-9.651817614E-1,-1.350976957E0,1.038062084E1
8.645062125E0,-6.945198791E0,1.741382390E0,-8.861340204E-2,7.160729796E0
8.655117125E0,-4.152654549E0,3.287867142E0,6.404601485E-1,5.335241265E0
8.665171125E0,-1.907976873E0,4.311159117E0,5.386566156E-1,4.745168030E0
8.675225125E0,3.428778023E-1,5.553963169E0,-6.994907141E-2,5.564976635E0
8.685279125E0,2.484742717E0,6.820230929E0,-1.013701957E0,7.329194222E0
8.695334125E0,4.407867971E0,8.040643069E0,-2.147117468E0,9.417608743E0
8.705388125E0,6.121008017E0,8.767996935E0,-3.091643940E0,1.113116219E1
8.715442125E0,7.369952815E0,9.096541457E0,-3.655402068E0,1.226479658E1
8.725497125E0,8.360210361E0,9.201163348E0,-4.056717528E0,1.307713582E1
8.735551125E0,9.032115666E0,8.883558966E0,-4.274331599E0,1.337036439E1
8.745605125E0,9.610295951E0,8.281198690E0,-4.228884115E0,1.337234089E1
8.755659125E0,9.852476513E0,7.708756278E0,-3.999983164E0,1.313377638E1
8.765714125E0,9.799081494E0,7.118562888E0,-3.646609610E0,1.264886150E1
8.775768125E0,9.559511713E0,6.737421491E0,-3.226981840E0,1.213221020E1
8.785822125E0,9.240056688E0,6.640211531E0,-2.805174227E0,1.171921752E1
8.795877125E0,8.997499564E0,6.658403388E0,-2.427651088E0,1.145350706E1
8.805931125E0,8.663708335E0,6.737517385E0,-2.121107299E0,1.117824131E1
8.815985125E0,8.261523979E0,6.687192739E0,-2.016763151E0,1.081844068E1
8.826039125E0,7.911998477E0,6.516496142E0,-1.891621041E0,1.042317955E1
8.836094125E0,7.636081234E0,6.464955275E0,-1.750711915E0,1.015728190E1
8.846148333E0,7.330287643E0,6.511088637E0,-1.670098692E0,9.945683577E0
8.856202333E0,7.105561604E0,6.537816260E0,-1.548246810E0,9.779014027E0
8.866257333E0,6.987867093E0,6.856351519E0,-1.223240438E0,9.865908971E0
8.876311333E0,6.914818413E0,7.223139170E0,-9.034258816E-1,1.004015097E1
8.886365333E0,6.853475858E0,7.314162776E0,-7.184310150E-1,1.004904232E1
8.896419333E0,6.772180265E0,7.200143825E0,-5.405920440E-1,9.899330099E0
8.906474333E0,6.771535317E0,6.899398720E0,-4.352222212E-1,9.677024937E0
8.916528333E0,6.862263054E0,6.449846655E0,-4.318788564E-1,9.427496774E0
8.926582333E0,6.887351117E0,6.059009405E0,-3.327597072E-1,9.179211807E0
8.936636333E0,6.810322822E0,5.715615878E0,-2.700747780E-1,8.895038066E0
8.946691333E0,6.684906478E0,5.341772391E0,-3.790890241E-1,8.565408069E0
8.956745333E0,6.408992743E0,4.980461826E0,-6.045458190E-1,8.139143913E0
8.966799333E0,6.092364262E0,4.541867735E0,-6.992703471E-1,7.631149575E0
8.976854333E0,5.697595929E0,4.377819130E0,-8.283564766E-1,7.232846891E0
8.986908333E0,4.993418671E0,3.984559963E0,-1.185317736E0,6.497378415E0
8.996962333E0,3.587422339E0,2.970158679E0,-1.526206170E0,4.901096499E0
9.007016333E0,1.229829081E0,1.017557319E0,-1.511901541E0,2.198578799E0
9.017071333E0,-2.116639441E0,-1.603294545E0,-1.305122361E0,2.958726128E0
9.027125333E0,-5.669084321E0,-4.623084391E0,-7.878111523E-1,7.357450152E0
9.037179333E0,-9.130794446E0,-8.069232445E0,3.261300610E-1,1.218976129E1
9.047233333E0,-1.240581993E1,-1.100996326E1,1.569204839E0,1.666091423E1
9.057288333E0,-1.546228936E1,-1.270918518E1,2.969096825E0,2.023416211E1
9.067342333E0,-1.772992613E1,-1.378324619E1,4.810049989E0,2.296660047E1
9.077396333E0,-1.963989223E1,-1.537305384E1,6.356060824E0,2.573821400E1
9.087451333E0,-2.160657281E1,-1.792024949E1,7.705237423E0,2.910927711E1
9.097505333E0,-2.360280521E1,-2.029649712E1,8.762514585E0,3.233916930E1
9.107559333E0,-2.523347672E1,-2.024443118E1,8.681435924E0,3.349526340E1
9.117613333E0,-2.260026735E1,-1.843479745E1,7.448220136E0,3.010132596E1
9.127668333E0,-1.914649832E1,-1.719233079E1,5.585121228E0,2.633169602E1
9.137722333E0,-1.669312007E1,-1.574962271E1,4.140916264E0,2.332076458E1
9.147776333E0,-1.379853315E1,-1.348525921E1,2.573884689E0,1.946475316E1
9.157830333E0,-1.193962377E1,-9.697107807E0,1.247063749E0,1.543190473E1
9.167885333E0,-1.006965029E1,-5.098009572E0,7.274626243E-1,1.131002920E1
9.177939333E0,-5.858124803E0,-1.454918232E0,2.506122476E-1,6.041292888E0
9.187993333E0,-3.039228330E0,1.699378039E0,3.336813015E-1,3.498019121E0
9.198048333E0,-7.886589986E-1,3.715447125E0,6.084086359E-1,3.846646777E0
9.208102333E0,1.426272138E0,5.165171860E0,1.028859694E0,5.456354537E0
9.218156333E0,3.418058322E0,6.781487278E0,1.167636341E0,7.683428077E0
9.228210333E0,4.865503228E0,7.901908522E0,2.348738454E-1,9.282696034E0
9.238265333E0,5.654366879E0,8.347232466E0,-1.541973333E0,1.019930568E1
9.248319333E0,6.580611446E0,9.081819922E0,-3.158109825E0,1.165150453E1
9.258373333E0,7.288067822E0,9.831708373E0,-3.845171698E0,1.282824101E1
9.268427333E0,7.507913191E0,9.715447599E0,-3.510910937E0,1.277048073E1
9.278482333E0,7.702857606E0,8.939550734E0,-2.425445518E0,1.204708963E1
9.288536333E0,7.725370556E0,8.182161475E0,-1.151634777E0,1.131173635E1
9.298590333E0,7.849571849E0,7.714619865E0,-2.220339811E-1,1.100819862E1
9.308645333E0,7.836620851E0,6.820302265E0,1.360038241E-1,1.038978568E1
9.318699333E0,7.795515509E0,5.844984355E0,1.729524529E-1,9.744938005E0
9.328753333E0,8.198862877E0,5.606108639E0,4.353485942E-2,9.932356308E0
9.338807333E0,8.306555141E0,5.388481119E0,-2.360485876E-1,9.904055029E0
9.348862333E0,8.456760755E0,5.609516396E0,-5.772703853E-1,1.016448315E1
9.358916333E0,8.781351975E0,5.179716225E0,-7.390950020E-1,1.022193055E1
9.368970333E0,8.147762890E0,3.977726615E0,-6.900766969E-2,9.067144600E0
9.379025333E0,8.037345824E0,4.234945924E0,3.280046783E-2,9.084864927E0
9.389079333E0,7.908507689E0,4.239112065E0,5.693134211E-2,8.973171465E0
9.399133333E0,7.420452293E0,4.086481025E0,4.733028710E-2,8.471403636E0
9.409187333E0,7.371197687E0,4.119864826E0,-1.442098796E-1,8.445628338E0
9.419242333E0,7.326860590E0,4.189885526E0,-3.203800553E-1,8.446340640E0
9.429296333E0,7.270785792E0,4.526728417E0,-6.732355464E-1,8.591207266E0
9.439350333E0,7.419061241E0,4.931265693E0,-8.684701301E-1,8.950647540E0
9.449404333E0,7.235393765E0,4.779919871E0,-8.811267208E-1,8.716360548E0
9.459459333E0,7.067073476E0,4.507199009E0,-4.849259663E-1,8.396042140E0
9.469513333E0,6.634400568E0,4.266054280E0,4.880802467E-2,7.887767253E0
9.479567333E0,5.823008764E0,4.164254256E0,4.627059621E-1,7.173739707E0
9.489622333E0,5.255868022E0,3.695185938E0,6.190628475E-1,6.454594224E0
9.499676333E0,4.000193664E0,3.476918734E0,6.260368216E-1,5.336893790E0
9.509730333E0,2.657786386E0,3.326899645E0,9.490937322E-1,4.362667606E0
9.519784333E0,7.116874212E-1,2.763037730E0,1.532302038E0,3.238645707E0
9.529839333E0,-1.474238017E0,2.099293968E0,1.865093393E0,3.171590494E0
9.539893333E0,-4.250578455E0,5.397788790E-1,1.978439038E0,4.719427875E0
9.549947333E0,-7.697978105E0,-2.032629570E0,2.473038930E0,8.337048124E0
9.560001333E0,-1.082379493E1,-4.879035439E0,3.137770286E0,1.228027385E1
9.570056333E0,-1.312931931E1,-7.332900764E0,4.039980458E0,1.557150928E1
9.580110333E0,-1.468960437E1,-8.586048540E0,5.076810492E0,1.775608940E1
9.590164333E0,-1.499247143E1,-8.223800667E0,5.716531552E0,1.803008125E1
9.600219333E0,-1.479663882E1,-6.994564494E0,5.857372266E0,1.738313156E1
9.610273333E0,-1.593384041E1,-6.980537024E0,6.729989095E0,1.865228995E1
9.620327333E0,-1.787521541E1,-8.066160318E0,8.384419003E0,2.132802734E1
9.630381333E0,-1.922351668E1,-7.785403919E0,9.765758212E0,2.292435694E1
9.640436333E0,-1.986169349E1,-6.533709176E0,1.035809695E1,2.333380372E1
9.650490333E0,-1.978371736E1,-5.221305131E0,1.006239156E1,2.280151801E1
9.660544333E0,-1.882844955E1,-4.196021301E0,8.847668172E0,2.122259031E1
9.670598333E0,-1.751172091E1,-3.417637030E0,7.148115301E0,1.922072226E1
9.680653333E0,-1.527103863E1,-2.378726850E0,5.673128255E0,1.646351562E1
9.690707333E0,-1.258841912E1,-8.773462766E-1,4.815572684E0,1.350658257E1
9.700761333E0,-9.658251890E0,4.569329330E-1,4.217977889E0,1.054902625E1
9.710816333E0,-6.736545578E0,1.049017605E0,3.347898166E0,7.595387179E0
9.720870333E0,-3.763687824E0,1.246663799E0,2.130982077E0,4.501177765E0
9.730924333E0,-9.319578820E-1,1.095640744E0,2.783764355E-1,1.465082787E0
9.740978333E0,1.695731131E0,5.516003776E-1,-2.102620742E0,2.756951401E0
9.751033333E0,4.078108982E0,-1.287799546E-1,-4.696281883E0,6.221143036E0
9.761087333E0,6.188357416E0,-6.062904820E-2,-6.699537381E0,9.120484884E0
9.771141333E0,7.938624358E0,6.516502574E-2,-7.686581297E0,1.105031833E1
9.781195333E0,9.259841911E0,-1.342628887E-1,-7.698562242E0,1.204286342E1
9.791250333E0,1.010732858E1,2.323686424E-1,-7.206575763E0,1.241558780E1
9.801304333E0,1.081315300E1,4.770814879E-1,-6.257791933E0,1.250247353E1
9.811358333E0,1.131933710E1,5.909102583E-1,-4.809076427E0,1.231274881E1
9.821413333E0,1.163764549E1,6.623173329E-1,-3.394787573E0,1.214075942E1
9.831467333E0,1.216942168E1,4.413630402E-1,-1.956288323E0,1.233355948E1
9.841521333E0,1.260241502E1,-6.533459499E-2,-1.293612263E0,1.266880285E1
9.851575375E0,1.300512913E1,-3.593839073E-1,-1.113785312E0,1.305768196E1
9.861630375E0,1.332521858E1,-9.458646074E-1,-1.407566895E0,1.343269722E1
9.871684375E0,1.345761708E1,-1.695785218E0,-2.137719238E0,1.373145982E1
9.881738375E0,1.358320592E1,-2.356186856E0,-3.101723955E0,1.413066846E1
9.891792375E0,1.363122092E1,-2.900666276E0,-4.136309828E0,1.453730056E1
9.901847375E0,1.340688430E1,-3.398413432E0,-4.799020678E0,1.463982104E1
9.911901375E0,1.308607448E1,-3.626875257E0,-4.995894967E0,1.446922720E1
9.921955375E0,1.262781766E1,-3.597193621E0,-4.721860528E0,1.395340631E1
9.932010375E0,1.200286959E1,-3.435001214E0,-4.101717700E0,1.314124042E1
9.942064375E0,1.136505765E1,-3.128748617E0,-3.385353091E0,1.226434747E1
9.952118375E0,1.085971554E1,-2.640074877E0,-2.973682212E0,1.156486934E1
9.962172375E0,1.025753068E1,-2.110660663E0,-2.942765059E0,1.087803706E1
9.972227375E0,9.790554500E0,-1.677259192E0,-3.057039533E0,1.039296139E1
9.982281375E0,9.490696417E0,-1.238224805E0,-3.068890085E0,1.005109972E1
9.992335375E0,9.080326543E0,-1.128365271E0,-3.350976725E0,9.744464240E0
1.000239038E1,8.561030059E0,-1.102822294E0,-3.582680247E0,9.345750394E0
1.001244438E1,7.808930191E0,-9.645502621E-1,-3.153036196E0,8.476519639E0
1.002249838E1,6.346520507E0,-9.671385321E-1,-2.029164657E0,6.732844027E0
1.003255237E1,4.688827853E0,-7.393912366E-1,-6.730757712E-1,4.794250413E0
1.004260738E1,2.307263934E0,-6.219542956E-1,-9.243029997E-2,2.391409076E0
1.005266138E1,-5.735411042E-1,-2.562132955E-1,-1.488266949E-1,6.455571517E-1
1.006271538E1,-4.283763158E0,9.314439118E-2,-7.230204946E-1,4.345349388E0
1.007276937E1,-9.477724369E0,-5.182203045E-1,-1.820432945E0,9.664873905E0
1.008282438E1,-1.407303887E1,-1.242824517E0,-2.855873095E0,1.441357163E1
1.009287838E1,-1.845908679E1,-2.140178285E0,-2.310520248E0,1.872583114E1
1.010293237E1,-2.054436293E1,-4.674009839E-1,1.388935363E-1,2.055014850E1
1.011298738E1,-1.965114461E1,3.346103363E0,2.841642727E0,2.013551155E1
1.012304138E1,-1.970085998E1,4.678969447E0,4.790119754E0,2.080773621E1
1.013309538E1,-2.185092093E1,3.141750778E0,6.757420138E0,2.308670766E1
1.014314937E1,-2.333251416E1,1.622482622E0,8.056788400E0,2.473763340E1
1.015320438E1,-2.225781464E1,1.531993159E0,7.468208842E0,2.352724928E1
1.016325838E1,-2.031969887E1,1.956387287E0,4.299592155E0,2.086154611E1
1.017331238E1,-1.964819761E1,1.168082191E-1,4.647929064E-1,1.965404147E1
1.018336637E1,-1.839458030E1,-1.795487261E0,-1.868581842E0,1.857622021E1
1.019342138E1,-1.485690257E1,-1.307587401E0,-1.477282662E0,1.498731807E1
1.020347538E1,-1.166164948E1,-4.851400474E-1,5.225456361E-1,1.168342772E1
1.021352938E1,-8.900926366E0,-4.874143220E-1,2.011250396E0,9.138336339E0
1.022358337E1,-6.208147318E0,-6.628227516E-1,2.660478444E0,6.786646644E0
1.023363838E1,-3.684705974E0,-4.930000940E-1,1.912672187E0,4.180720285E0
1.024369238E1,-8.620140731E-1,2.940436844E-2,-3.599414393E-2,8.632661568E-1
1.025374638E1,1.830135815E0,6.701784758E-1,-2.233449415E0,2.964259195E0
1.026380137E1,4.475722570E0,1.036646650E0,-4.188421383E0,6.216880446E0
1.027385538E1,6.605610632E0,1.119104597E0,-5.407788041E0,8.609916284E0
1.028390938E1,8.112414717E0,1.183231011E0,-5.689505721E0,9.979067267E0
1.029396338E1,9.320821354E0,1.412982001E0,-5.254909079E0,1.079297449E1
1.030401837E1,1.039412515E1,1.466423652E0,-4.514443417E0,1.142665460E1
1.031407238E1,1.139068015E1,1.392451842E0,-3.328957865E0,1.194857635E1
1.032412638E1,1.208072059E1,1.453623658E0,-1.940676842E0,1.232164998E1
1.033418137E1,1.255388079E1,1.568140792E0,-7.712712796E-1,1.267492989E1
1.034423537E1,1.305192557E1,1.530444378E0,7.146233082E-2,1.314154207E1
1.035428938E1,1.333065298E1,1.231363682E0,7.625342238E-1,1.340910228E1
1.036434338E1,1.326013088E1,1.061457483E0,1.160902687E0,1.335310668E1
1.037439837E1,1.319286802E1,7.100344133E-1,1.685200295E0,1.331900205E1
1.038445238E1,1.293761952E1,1.565783853E-1,2.355485044E0,1.315122905E1
1.039450638E1,1.255809312E1,-4.143045747E-1,3.022091310E0,1.292324986E1
1.040456038E1,1.251554761E1,-8.443279999E-1,2.962035728E0,1.288896728E1
1.041461537E1,1.278236191E1,-1.018136047E0,2.703423612E0,1.310472725E1
1.042466938E1,1.287484264E1,-1.314503488E0,2.206751028E0,1.312856590E1
1.043472338E1,1.243219789E1,-1.783150367E0,1.803908129E0,1.268831172E1
1.044477838E1,1.168636683E1,-1.940796125E0,1.814904549E0,1.198464591E1
1.045483237E1,1.095629751E1,-1.656301894E0,2.253906483E0,1.130769143E1
1.046488638E1,1.027446539E1,-1.292453930E0,2.718066502E0,1.070621136E1
1.047494038E1,9.564594113E0,-1.183658954E0,2.851855474E0,1.005065116E1
1.048499538E1,8.901077224E0,-1.045100189E0,3.047829876E0,9.466291624E0
1.049504937E1,8.293798855E0,-7.076505035E-1,3.739182143E0,9.125204205E0
1.050510338E1,7.780805084E0,-3.460628903E-1,4.412996564E0,8.951828079E0
1.051515738E1,6.837088451E0,-1.525154109E-1,4.894076232E0,8.409579157E0
1.052521238E1,5.358459175E0,-1.720136093E-1,3.893006015E0,6.625569353E0
1.053526637E1,4.502371840E0,2.057832166E-1,3.522762659E0,5.720450652E0
1.054532038E1,4.075270159E0,7.818782019E-1,3.094324304E0,5.176292427E0
1.055537538E1,3.722747959E0,1.231083308E0,2.253995799E0,4.522711083E0
1.056542937E1,2.985494172E0,2.075851311E0,1.140298269E0,3.810854794E0
1.057548337E1,1.289066638E0,2.947467974E0,-1.009872615E-2,3.217042468E0
1.058553738E1,-1.477082688E0,2.998395176E0,-1.085469366E0,3.514312258E0
1.059559238E1,-4.945301934E0,2.097803075E0,-2.035289469E0,5.744492334E0
1.060564637E1,-9.538680423E0,5.827108540E-2,-2.679291276E0,9.907997854E0
1.061570037E1,-1.458231732E1,-3.421764872E0,-2.689681193E0,1.521797747E1
1.062575538E1,-1.892835742E1,-7.402779669E0,-2.499258429E0,2.047755244E1
1.063580938E1,-2.132811670E1,-1.032310487E1,-1.062841811E0,2.371886778E1
1.064586337E1,-2.163818753E1,-1.165763478E1,8.874145241E-1,2.459469684E1
1.065591737E1,-2.212287961E1,-1.200923721E1,2.854358082E0,2.533359313E1
1.066597238E1,-2.339163887E1,-1.227571588E1,6.346750302E0,2.716879108E1
1.067602638E1,-2.426558945E1,-1.276041497E1,8.505298492E0,2.870517591E1
1.068608037E1,-2.524314567E1,-1.265310570E1,8.100070660E0,2.937564692E1
1.069613438E1,-2.584523113E1,-1.141284577E1,6.854954034E0,2.907265752E1
1.070618938E1,-2.637424276E1,-9.625412173E0,6.121089878E0,2.873529158E1
1.071624338E1,-2.555094544E1,-6.890458328E0,5.681985617E0,2.706684669E1
1.072629737E1,-2.227385472E1,-3.065111322E0,5.250934142E0,2.308878128E1
1.073635238E1,-1.742688483E1,8.286470832E-1,5.033223592E0,1.815809215E1
1.074640638E1,-1.238294095E1,4.101679401E0,5.036992707E0,1.398328631E1
1.075646038E1,-7.810190851E0,6.621409224E0,4.960954345E0,1.137775062E1
1.076651437E1,-4.031572747E0,8.278727657E0,4.760436364E0,1.036593772E1
1.077656938E1,-1.070176120E0,9.013282954E0,4.307794629E0,1.004697174E1
1.078662338E1,1.246265604E0,9.079686273E0,3.135630789E0,9.686385354E0
1.079667738E1,3.121564727E0,9.008559573E0,1.627761927E0,9.672017412E0
1.080673137E1,4.593643953E0,8.928650354E0,9.718547501E-2,1.004150422E1
1.081678638E1,6.004199359E0,8.844376774E0,-1.310369799E0,1.076988763E1
1.082684038E1,7.944847550E0,8.745155371E0,-1.865398033E0,1.196152394E1
1.083689438E1,1.003090079E1,8.394508374E0,-1.502568946E0,1.316603414E1
1.084694925E1,1.108714650E1,8.033910584E0,-2.889065400E0,1.399339972E1
1.085700325E1,1.181384548E1,7.799428466E0,-3.674953988E0,1.462543388E1
1.086705725E1,1.245737366E1,7.559855762E0,-3.833177889E0,1.506754228E1
1.087711125E1,1.273146541E1,6.761545933E0,-3.810114716E0,1.491058983E1
1.088716625E1,1.249622490E1,5.663052918E0,-3.603891606E0,1.418498643E1
1.089722025E1,1.177446098E1,4.578261098E0,-3.157188304E0,1.302176040E1
1.090727425E1,1.093262331E1,3.447863334E0,-2.411897665E0,1.171440414E1
1.091732825E1,1.035745375E1,2.407097686E0,-1.365710186E0,1.072082701E1
1.092738325E1,1.011705367E1,1.707370744E0,-4.086291575E-1,1.026824559E1
1.093743725E1,1.008436539E1,1.553712934E0,2.802471060E-1,1.020720274E1
1.094749125E1,1.007968762E1,1.718314393E0,8.955396688E-1,1.026424367E1
1.095754625E1,1.012245883E1,2.103153715E0,1.274866675E0,1.041694357E1
1.096760025E1,1.008025597E1,2.749413132E0,1.520853044E0,1.055859020E1
1.097765425E1,1.011524337E1,3.551532421E0,1.572719893E0,1.083535781E1
1.098770825E1,1.004994517E1,4.255610569E0,1.494906170E0,1.101573256E1
1.099776325E1,9.733530114E0,4.840333888E0,1.442672847E0,1.096593569E1
1.100781725E1,9.426903294E0,5.190411952E0,1.491207368E0,1.086418802E1
1.101787125E1,8.732386807E0,4.978241639E0,1.493558826E0,1.016209561E1
1.102792625E1,7.358353109E0,4.535141391E0,1.364129099E0,8.750640897E0
1.103798025E1,6.159307864E0,4.160227278E0,1.192396960E0,7.527707147E0
1.104803425E1,5.337827275E0,4.013872640E0,8.169185919E-1,6.728367527E0
1.105808825E1,4.951915135E0,3.969207222E0,3.899905729E-1,6.358314408E0
1.106814325E1,4.397502612E0,4.595299299E0,1.645751470E-1,6.362538004E0
1.107819725E1,3.339075887E0,5.238057404E0,-5.448669434E-2,6.212056177E0
1.108825125E1,2.057504795E0,5.300606239E0,-4.811007178E-1,5.706243106E0
1.109830625E1,4.772573429E-1,4.239684507E0,-1.317155492E0,4.465153736E0
1.110836025E1,-1.494622580E0,2.351404273E0,-2.059114534E0,3.464527583E0
1.111841425E1,-3.135329658E0,3.945093012E-1,-2.780287893E0,4.209029629E0
1.112846825E1,-4.835651438E0,-1.598051932E0,-3.178058186E0,6.003111580E0
1.113852325E1,-7.465112157E0,-3.864205554E0,-3.167058112E0,8.982774692E0
1.114857725E1,-1.168542542E1,-6.334865252E0,-2.438162042E0,1.351385656E1
1.115863125E1,-1.623827335E1,-8.274241673E0,-6.185677345E-1,1.823532897E1
1.116868525E1,-2.004484699E1,-9.819576570E0,1.539191812E0,2.237384827E1
1.117874025E1,-2.298870022E1,-1.157569774E1,3.867368898E0,2.602755575E1
1.118879425E1,-2.565053288E1,-1.385071019E1,6.958394203E0,2.997017283E1
1.119884825E1,-2.784155475E1,-1.610469722E1,1.075472996E1,3.391426927E1
1.120890325E1,-2.885105081E1,-1.760882679E1,1.441604473E1,3.674610536E1
1.121895725E1,-2.770617066E1,-1.706000128E1,1.643941874E1,3.645449252E1
1.122901125E1,-2.441152659E1,-1.446318615E1,1.642252730E1,3.278423077E1
1.123906525E1,-2.004776592E1,-1.087933997E1,1.499718897E1,2.729814341E1
1.124912025E1,-1.569316083E1,-6.810709323E0,1.281175586E1,2.137293023E1
1.125917425E1,-1.162492662E1,-2.706400722E0,1.027316614E1,1.574806230E1
1.126922825E1,-7.863718602E0,6.695504849E-1,7.306014097E0,1.075472966E1
1.127928225E1,-4.855212713E0,3.015133123E0,4.399694733E0,7.212588438E0
1.128933725E1,-2.682610740E0,4.445046907E0,1.881604176E0,5.522252861E0
1.129939125E1,-7.727802998E-1,6.000386975E0,-1.141547965E0,6.156700821E0
1.130944525E1,6.627123123E-1,7.093726839E0,-3.936333298E0,8.139709326E0
1.131950025E1,2.451083804E0,7.702227861E0,-6.146576722E0,1.015443407E1
1.132955425E1,4.449175041E0,8.014985486E0,-7.694466852E0,1.196829023E1
1.133960825E1,6.410152246E0,8.288272651E0,-8.258445420E0,1.334119320E1
1.134966225E1,7.874501452E0,8.568954790E0,-7.997026933E0,1.412045322E1
1.135971725E1,8.374289871E0,8.684346668E0,-7.392586218E0,1.414909675E1
1.136977125E1,8.132696369E0,8.623782377E0,-6.261106719E0,1.340566410E1
1.137982525E1,8.160150801E0,8.436745736E0,-4.800168779E0,1.268102362E1
1.138987925E1,8.654608898E0,8.096472284E0,-3.596803612E0,1.238515704E1
1.139993425E1,9.258812801E0,7.559609009E0,-2.710593760E0,1.225645224E1
1.140998825E1,9.736611012E0,6.878346990E0,-1.871620202E0,1.206715432E1
1.142004225E1,1.022162995E1,6.029510202E0,-1.065817094E0,1.191522883E1
1.143009725E1,1.073427990E1,5.078286914E0,-5.430093560E-1,1.188733032E1
1.144015125E1,1.112043821E1,4.125717304E0,-5.440338613E-1,1.187356990E1
1.145020525E1,1.132183269E1,3.274689272E0,-9.368346061E-1,1.182307677E1
1.146025925E1,1.137611239E1,2.532737247E0,-1.614363617E0,1.176591947E1
1.147031425E1,1.133359027E1,1.977365196E0,-2.408850681E0,1.175426744E1
1.148036825E1,1.125913183E1,1.674252261E0,-3.406049311E0,1.188159678E1
1.149042225E1,1.114243193E1,1.624491579E0,-4.669439655E0,1.219001349E1
1.150047725E1,1.090060629E1,1.813408685E0,-5.864969553E0,1.251037715E1
1.151053125E1,1.068655142E1,2.301534247E0,-6.811584066E0,1.288010554E1
1.152058525E1,1.064791302E1,2.945875193E0,-7.229239570E0,1.320295941E1
1.153063925E1,1.055088198E1,3.453795335E0,-7.119733500E0,1.318864731E1
1.154069425E1,1.041143875E1,3.758372705E0,-6.534841197E0,1.285408775E1
1.155074825E1,1.003728829E1,3.934111064E0,-5.800260757E0,1.224203459E1
1.156080225E1,9.409765105E0,3.878770968E0,-4.976335446E0,1.132927438E1
1.157085625E1,8.909117146E0,3.784777561E0,-4.111976640E0,1.051690360E1
1.158091125E1,8.082612628E0,3.619726159E0,-3.364141147E0,9.473567967E0
1.159096525E1,6.325725469E0,2.941227826E0,-2.706941004E0,7.482857304E0
1.160101925E1,3.794442424E0,1.643113645E0,-2.197941467E0,4.682794300E0
1.161107425E1,6.146680802E-1,-1.394289038E-1,-1.623600463E0,1.741647419E0
1.162112825E1,-3.809864455E0,-2.361004377E0,-7.979671812E-1,4.552599308E0
1.163118225E1,-9.267871892E0,-5.311568599E0,8.234272007E-1,1.071374084E1
1.164123625E1,-1.513247249E1,-8.563294101E0,2.875612711E0,1.762358868E1
1.165129125E1,-2.006202378E1,-1.105652580E1,4.736022484E0,2.339148285E1
1.166134525E1,-2.311539301E1,-1.222377857E1,6.154226049E0,2.686292342E1
1.167139925E1,-2.630349379E1,-1.323018262E1,7.228282381E0,3.031764476E1
1.168145325E1,-3.118722630E1,-1.527760038E1,8.972406238E0,3.586854097E1
1.169150825E1,-3.468824199E1,-1.659991195E1,1.164323192E1,4.017954776E1
1.170156225E1,-3.401878959E1,-1.590525571E1,1.391502138E1,4.004850839E1
1.171161625E1,-3.019201148E1,-1.365723167E1,1.492288021E1,3.634239794E1
1.172167125E1,-2.610992289E1,-1.119301151E1,1.403302871E1,3.168497238E1
1.173172525E1,-2.242312010E1,-8.554313947E0,1.162084293E1,2.666489438E1
1.174177925E1,-1.841612262E1,-5.600098286E0,8.255480297E0,2.094439371E1
1.175183325E1,-1.420263071E1,-2.825934474E0,4.302139202E0,1.510658884E1
1.176188825E1,-9.807440674E0,-1.547529942E-1,2.388973510E-1,9.811570364E0
1.177194225E1,-5.445566316E0,2.379678776E0,-3.089661734E0,6.697990237E0
1.178199625E1,-1.290641878E0,4.366155689E0,-5.132622750E0,6.860968463E0
1.179205025E1,2.914944592E0,5.635496160E0,-6.215772672E0,8.882091468E0
1.180210525E1,6.942938257E0,6.178934044E0,-6.672105753E0,1.144118057E1
1.181215925E1,9.870111716E0,6.460089807E0,-6.636314946E0,1.353486393E1
1.182221325E1,1.136554647E1,6.525285092E0,-6.254977083E0,1.452169861E1
1.183226825E1,1.194686028E1,6.377627109E0,-5.753991154E0,1.471427920E1
1.184232225E1,1.234741327E1,6.262256282E0,-4.979518086E0,1.471292182E1
1.185237637E1,1.267525261E1,6.234644560E0,-4.132890376E0,1.471779890E1
1.186243038E1,1.265916108E1,6.076476792E0,-3.217519290E0,1.440591405E1
1.187248538E1,1.253211862E1,6.113291447E0,-2.336018786E0,1.413800952E1
1.188253937E1,1.217908596E1,6.310068380E0,-1.756728115E0,1.382870896E1
1.189259337E1,1.149575227E1,6.406043408E0,-1.329908270E0,1.322718294E1
1.190264738E1,1.064280255E1,6.533466516E0,-9.370022750E-1,1.252331442E1
1.191270238E1,9.868673301E0,6.761547688E0,-5.200607522E-1,1.197412640E1
1.192275637E1,9.195193341E0,6.985482599E0,-1.548342339E-1,1.154870215E1
1.193281038E1,8.795809216E0,7.229972811E0,1.507119834E-1,1.138689952E1
1.194286538E1,8.663304877E0,7.470461190E0,2.378787843E-1,1.144190666E1
1.195291938E1,8.529846273E0,7.486787785E0,1.352554901E-1,1.135026708E1
1.196297337E1,8.398973308E0,7.363381130E0,-1.245807584E-1,1.117039188E1
1.197302738E1,8.398844084E0,7.263317143E0,-5.368667829E-1,1.111686034E1
1.198308238E1,8.391145640E0,7.065215231E0,-1.007188743E0,1.101558081E1
1.199313638E1,8.275458478E0,6.742664689E0,-1.302888286E0,1.075380203E1
1.200319037E1,8.165917325E0,6.435272470E0,-1.404581891E0,1.049131964E1
1.201324438E1,8.083433577E0,6.133516381E0,-1.380218883E0,1.024045535E1
1.202329938E1,8.183782323E0,5.825784438E0,-1.311449779E0,1.013084192E1
1.203335338E1,8.478898898E0,5.532506812E0,-1.261753124E0,1.020256728E1
1.204340737E1,8.625228978E0,5.166904975E0,-1.152249978E0,1.012023527E1
1.205346238E1,8.365521972E0,4.672700062E0,-1.004406638E0,9.634568824E0
1.206351638E1,7.839426929E0,4.150155157E0,-8.491279793E-1,8.910747485E0
1.207357038E1,7.263508347E0,3.596273561E0,-7.211394453E-1,8.137062070E0
1.208362437E1,6.332675470E0,2.886855445E0,-4.649296947E-1,6.975161115E0
1.209367938E1,4.641841382E0,1.729770697E0,-2.477792716E-1,4.959858127E0
1.210373338E1,2.029297827E0,-1.104030329E-1,-2.362836456E-1,2.045988382E0
1.211378737E1,-1.196301146E0,-2.112020141E0,-3.748264769E-1,2.456066041E0
1.212384238E1,-4.336683968E0,-3.744167187E0,-3.371971957E-1,5.739278501E0
1.213389638E1,-7.180021802E0,-5.165425045E0,-3.440731924E-2,8.845084106E0
1.214395038E1,-1.002828592E1,-6.582505360E0,5.880217338E-1,1.201006514E1
1.215400437E1,-1.295510269E1,-8.020966018E0,1.741273924E0,1.533631692E1
1.216405938E1,-1.520005928E1,-9.563017119E0,3.433220737E0,1.828332856E1
1.217411338E1,-1.674858910E1,-1.119306063E1,4.812456118E0,2.071133933E1
1.218416738E1,-1.850409748E1,-1.322049846E1,5.405514643E0,2.337526025E1
1.219422137E1,-2.079932726E1,-1.532232456E1,5.212040802E0,2.635433577E1
1.220427638E1,-2.317454111E1,-1.711827580E1,4.424634862E0,2.914913576E1
1.221433038E1,-2.503822415E1,-1.834582505E1,3.238605520E0,3.120850094E1
1.222438438E1,-2.569613181E1,-1.849913437E1,1.910726234E0,3.172002580E1
1.223443837E1,-2.458500880E1,-1.679601820E1,3.553924517E-1,2.977675585E1
1.224449338E1,-2.223756222E1,-1.344307272E1,-1.361185172E0,2.602072641E1
1.225454738E1,-1.949686699E1,-9.283942965E0,-2.811216155E0,2.177664703E1
1.226460138E1,-1.616076851E1,-4.948947673E0,-3.445723253E0,1.724921826E1
1.227465537E1,-1.233540192E1,-1.285800675E0,-3.276932849E0,1.282784911E1
1.228471038E1,-8.431897225E0,1.374435402E0,-2.418790802E0,8.878992760E0
1.229476438E1,-4.634850451E0,3.298424582E0,-1.319301420E0,5.839691744E0
1.230481838E1,-1.094491181E0,4.713597535E0,-4.672088297E-1,4.861501492E0
1.231487337E1,1.813388804E0,5.668294362E0,-3.219044244E-1,5.959996844E0
1.232492738E1,4.024408738E0,6.203014632E0,-7.609122062E-1,7.433185293E0
1.233498138E1,5.927460501E0,6.455814323E0,-1.451730330E0,8.883684344E0
1.234503538E1,7.596678602E0,6.487086402E0,-2.206824557E0,1.023043940E1
1.235509038E1,9.316756954E0,6.611833239E0,-2.824746612E0,1.176849576E1
1.236514438E1,1.115609336E1,6.998810742E0,-3.489918264E0,1.362429082E1
1.237519838E1,1.226881850E1,7.136145465E0,-4.328287366E0,1.483854949E1
1.238525337E1,1.231898410E1,6.893757911E0,-4.818851802E0,1.491652105E1
1.239530738E1,1.198482976E1,6.654273500E0,-4.874738320E0,1.454917777E1
1.240536138E1,1.175843727E1,6.677864091E0,-4.578873301E0,1.427658210E1
1.241541538E1,1.136414314E1,6.854492104E0,-4.009195452E0,1.386367410E1
1.242547037E1,1.071084777E1,6.965434835E0,-3.405364602E0,1.322255839E1
1.243552438E1,1.003479971E1,7.082251094E0,-2.710221292E0,1.257778937E1
1.244557838E1,9.433080293E0,7.278312913E0,-2.020033498E0,1.208459259E1
1.245563238E1,8.976092323E0,7.488986923E0,-1.406062991E0,1.177421639E1
1.246568737E1,8.541487495E0,7.577091599E0,-9.721522272E-1,1.145924979E1
1.247574138E1,8.021926131E0,7.565120595E0,-6.441216749E-1,1.104523613E1
1.248579538E1,7.698145335E0,7.585356054E0,-3.125167197E-1,1.081187934E1
1.249585038E1,7.404120435E0,7.641864130E0,-9.896061659E-2,1.064090598E1
1.250590437E1,7.177623274E0,7.667463825E0,1.189370441E-1,1.050344817E1
1.251595838E1,7.228721507E0,7.722704226E0,3.632255280E-1,1.058425755E1
1.252601238E1,7.359457648E0,7.686317587E0,5.180352402E-1,1.065408163E1
1.253606737E1,7.345217339E0,7.447064141E0,6.240546155E-1,1.047856986E1
1.254612137E1,7.506219837E0,7.380733911E0,7.494937634E-1,1.055368704E1
1.255617538E1,7.832317885E0,7.614480450E0,7.565244555E-1,1.094978745E1
1.256623038E1,7.530954144E0,7.216875048E0,1.349913933E0,1.051764343E1
1.257628437E1,7.474498692E0,7.035554645E0,2.049635028E0,1.046748124E1
1.258633837E1,7.179133025E0,6.786964949E0,2.656013510E0,1.023021270E1
1.259639238E1,6.255198693E0,6.085789068E0,2.912653068E0,9.200428640E0
1.260644738E1,4.939376366E0,5.331649107E0,2.835816561E0,7.801652174E0
1.261650137E1,3.225763865E0,4.262794750E0,2.501055863E0,5.901885463E0
1.262655537E1,9.024393833E-1,2.837731524E0,1.827971175E0,3.494080088E0
1.263660938E1,-2.467382918E0,9.399475175E-1,1.209561973E0,2.904224504E0
1.264666438E1,-6.968809263E0,-1.655669225E0,1.700765437E0,7.361939025E0
1.265671837E1,-1.251353734E1,-4.845457803E0,3.243822405E0,1.380541422E1
1.266677237E1,-1.845578194E1,-8.727621911E0,6.498646932E0,2.142474465E1
1.267682738E1,-2.319887488E1,-1.155177445E1,8.392974064E0,2.724102241E1
1.268688138E1,-2.347251989E1,-1.154280716E1,8.426561056E0,2.748094828E1
1.269693537E1,-1.915499433E1,-8.894256447E0,7.178478137E0,2.230587711E1
1.270698938E1,-1.775233500E1,-8.011803432E0,6.400993168E0,2.050139278E1
1.271704438E1,-1.830095937E1,-8.940980963E0,6.575047821E0,2.140321257E1
1.272709838E1,-1.881566871E1,-1.029775719E1,6.091019402E0,2.229739244E1
1.273715237E1,-1.917259679E1,-1.173796383E1,5.351003391E0,2.310847246E1
1.274720638E1,-1.878674604E1,-1.239600012E1,4.278992414E0,2.291096728E1
1.275726138E1,-1.696930512E1,-1.152345638E1,3.188453951E0,2.075845856E1
1.276731538E1,-1.428194351E1,-9.611978195E0,2.450780626E0,1.738879987E1
1.277736937E1,-1.137466696E1,-7.264901739E0,2.098533392E0,1.365890509E1
1.278742438E1,-8.341571776E0,-4.822650738E0,2.023054170E0,9.845431835E0
1.279747838E1,-5.490946557E0,-2.670734753E0,2.241718401E0,6.504507637E0
1.280753238E1,-2.822289612E0,-1.012759824E0,2.589076047E0,3.961605217E0
1.281758637E1,2.373297125E-1,7.451467972E-1,2.231394557E0,2.364464170E0
1.282764138E1,2.870663627E0,1.821847094E0,1.355321146E0,3.660154628E0
1.283769538E1,5.017912073E0,2.257381922E0,1.628987503E-1,5.504702600E0
1.284775258E1,6.438002535E0,2.417026843E0,-1.177012497E0,6.976765283E0
1.285780658E1,7.369153501E0,2.591221098E0,-2.495375293E0,8.200350478E0
1.286786158E1,8.098610026E0,2.819070720E0,-3.482810681E0,9.255518046E0
1.287791558E1,8.614444959E0,3.096865504E0,-4.222286117E0,1.008101870E1
1.288796958E1,9.109587765E0,3.569799415E0,-4.725313309E0,1.086538738E1
1.289802458E1,9.563169731E0,4.079681298E0,-5.028335320E0,1.154911992E1
1.290807858E1,9.999474345E0,4.539201989E0,-4.967395054E0,1.205275303E1
1.291813258E1,1.040694225E1,4.878134091E0,-4.732889839E0,1.242983851E1
1.292818658E1,1.034760236E1,5.057556195E0,-4.782934988E0,1.247109524E1
1.293824158E1,1.005031822E1,5.229514621E0,-4.755651295E0,1.228710457E1
1.294829558E1,9.752539997E0,5.285556675E0,-4.513131301E0,1.197570457E1
1.295834958E1,9.350340437E0,5.027323751E0,-4.047213464E0,1.136146061E1
1.296840458E1,8.953333790E0,4.685498740E0,-3.456345890E0,1.068000053E1
1.297845858E1,8.666234917E0,4.540162687E0,-2.830182184E0,1.018462744E1
1.298851258E1,8.545979326E0,4.511043261E0,-2.076080376E0,9.883996341E0
1.299856658E1,8.488601768E0,4.534941416E0,-1.282511470E0,9.709113723E0
1.300862158E1,8.487355142E0,4.791628336E0,-5.096801537E-1,9.759850064E0
1.301867558E1,8.483197187E0,4.852658064E0,-8.331873000E-2,9.773426564E0
1.302872958E1,8.388468785E0,4.711423833E0,-2.076024681E-2,9.621037058E0
1.303878458E1,8.295844796E0,4.720046137E0,-1.491598400E-1,9.545790961E0
1.304883858E1,8.179660621E0,4.790741313E0,-2.515711910E-1,9.482686237E0
1.305889258E1,8.091291066E0,4.621026756E0,-5.176136559E-1,9.332245351E0
1.306894658E1,7.893731775E0,4.416243523E0,-9.770928320E-1,9.097742500E0
1.307900158E1,7.685039386E0,4.234354770E0,-1.378566459E0,8.882006314E0
1.308905558E1,7.383112559E0,4.019352066E0,-1.547672760E0,8.547562989E0
1.309910958E1,6.935956682E0,3.764255296E0,-1.484722367E0,8.030038203E0
1.310916358E1,6.320520278E0,3.557075289E0,-1.095792479E0,7.335020269E0
1.311921858E1,5.162580374E0,3.327898350E0,-4.391796899E-1,6.157923542E0
1.312927258E1,3.492792170E0,2.655029424E0,8.478316516E-2,4.388162095E0
1.313932658E1,1.302155630E0,1.130351716E0,2.394686240E-1,1.740876075E0
1.314938158E1,-2.447671954E0,-6.528262787E-1,-1.186800590E-1,2.536013624E0
1.315943558E1,-7.016613759E0,-2.428819654E0,-2.523073554E-4,7.425094856E0
1.316948958E1,-1.226789815E1,-4.628663220E0,1.551157554E0,1.320348204E1
1.317954358E1,-1.835902689E1,-7.281741135E0,4.286586193E0,2.021020642E1
1.318959858E1,-2.281290953E1,-9.504024560E0,7.373301516E0,2.578993795E1
1.319965258E1,-2.361960310E1,-1.022197026E1,8.778190970E0,2.719247990E1
1.320970658E1,-2.235663258E1,-1.045872987E1,7.998615621E0,2.594574922E1
1.321976058E1,-2.133851773E1,-1.142570029E1,7.183234847E0,2.524832329E1
1.322981558E1,-2.118207664E1,-1.253187304E1,7.015416250E0,2.559187914E1
1.323986958E1,-2.176036627E1,-1.282768134E1,6.212667800E0,2.601269286E1
1.324992358E1,-2.229328385E1,-1.205858420E1,5.284791859E0,2.589071228E1
1.325997858E1,-2.125210290E1,-1.038296632E1,4.862943024E0,2.414758957E1
1.327003258E1,-1.903762785E1,-8.162936999E0,4.383234236E0,2.117256614E1
1.328008658E1,-1.642217062E1,-6.008892335E0,3.728337897E0,1.788001618E1
1.329014058E1,-1.330544447E1,-3.852766354E0,2.951587338E0,1.416299858E1
1.330019558E1,-9.789450545E0,-1.480363122E0,2.348188012E0,1.017540190E1
1.331024958E1,-6.348245435E0,6.068747650E-1,1.521952466E0,6.556283734E0
1.332030358E1,-3.231589445E0,1.979628361E0,8.667038324E-1,3.887579494E0
1.333035758E1,-3.713753772E-1,3.559850086E0,-1.803246224E-1,3.583708871E0
1.334041258E1,1.938185343E0,5.064076425E0,-1.089660504E0,5.530713560E0
1.335046658E1,4.180147573E0,6.492761124E0,-1.586531455E0,7.883315470E0
1.336052058E1,6.723100491E0,7.563243054E0,-1.989225396E0,1.031308603E1
1.337057558E1,9.005844126E0,7.705854304E0,-2.679280166E0,1.215170610E1
1.338062958E1,1.060274211E1,7.169827766E0,-3.409724286E0,1.324578386E1
1.339068358E1,1.154219086E1,6.660087386E0,-4.030035514E0,1.392192947E1
1.340073758E1,1.163558960E1,6.094623626E0,-4.573366393E0,1.390852482E1
1.341079258E1,1.138163801E1,5.379044883E0,-4.867535135E0,1.349698877E1
1.342084658E1,1.139827919E1,4.810401114E0,-5.001350420E0,1.334444579E1
1.343090058E1,1.173135998E1,4.360735905E0,-4.806446934E0,1.340681755E1
1.344095558E1,1.193774096E1,4.090292240E0,-4.374099716E0,1.335563171E1
1.345100958E1,1.173698266E1,3.965750640E0,-3.749288763E0,1.294376709E1
1.346106358E1,1.132333426E1,3.881890458E0,-3.038218516E0,1.234980745E1
1.347111758E1,1.088082165E1,3.827720098E0,-2.389272303E0,1.177931845E1
1.348117258E1,1.051069758E1,3.875311171E0,-1.970942761E0,1.137441935E1
1.349122658E1,1.019854748E1,3.975269615E0,-1.725479425E0,1.108108381E1
1.350128058E1,9.962861420E0,4.088631631E0,-1.736264614E0,1.090825976E1
1.351133458E1,9.751369384E0,4.199073256E0,-2.070173373E0,1.081697919E1
1.352138958E1,9.516224776E0,4.266158946E0,-2.451453933E0,1.071299550E1
1.353144358E1,9.310608607E0,4.323330681E0,-2.684464892E0,1.061060661E1
1.354149758E1,9.088944170E0,4.437237951E0,-2.686860496E0,1.046504687E1
1.355155258E1,8.836011162E0,4.554771078E0,-2.356132624E0,1.021628082E1
1.356160658E1,8.611897327E0,4.605650041E0,-1.898122560E0,9.948852050E0
1.357166058E1,8.427211266E0,4.693358275E0,-1.361785681E0,9.741661145E0
1.358171458E1,8.292685545E0,4.707525494E0,-8.981494273E-1,9.577896545E0
1.359176958E1,7.946176622E0,4.587619566E0,-4.565763259E-1,9.186753405E0
1.360182358E1,7.362653736E0,4.396240490E0,2.710944593E-2,8.575332962E0
1.361187758E1,6.761568738E0,4.247813599E0,6.096453220E-1,8.008395569E0
1.362193258E1,6.337706414E0,4.356485564E0,1.130669659E0,7.773281349E0
1.363198658E1,5.614550264E0,4.454555649E0,1.159290025E0,7.260178652E0
1.364204058E1,3.788938440E0,3.432372306E0,1.113718581E0,5.232361152E0
1.365209458E1,8.187996411E-1,1.685702425E0,7.074300635E-1,2.003118272E0
1.366214958E1,-3.662465504E0,-6.906659500E-1,3.575898354E-1,3.744134548E0
1.367220358E1,-9.140114323E0,-3.260096376E0,6.719421422E-1,9.727354444E0
1.368225758E1,-1.476163505E1,-5.305631336E0,1.930532507E0,1.580451040E1
1.369231158E1,-1.981056310E1,-6.557032549E0,3.746175413E0,2.120110649E1
1.370236658E1,-2.426710037E1,-7.569193180E0,5.317622221E0,2.597040531E1
1.371242058E1,-2.808296524E1,-9.211734529E0,6.822866269E0,3.033249897E1
1.372247458E1,-2.982936951E1,-1.089993971E1,8.163109492E0,3.279079638E1
1.373252958E1,-2.966948324E1,-1.186422977E1,8.878591756E0,3.316425147E1
1.374258358E1,-2.867802234E1,-1.252954585E1,8.884057149E0,3.253221412E1
1.375263758E1,-2.709647914E1,-1.281260956E1,8.199984958E0,3.107445734E1
1.376269158E1,-2.459927367E1,-1.210906555E1,6.776865054E0,2.824322279E1
1.377274658E1,-2.178089702E1,-1.077710842E1,4.832143108E0,2.477706899E1
1.378280058E1,-1.898301368E1,-9.179829197E0,2.864073231E0,2.127973186E1
1.379285458E1,-1.570525521E1,-7.052008125E0,1.611027780E0,1.729107487E1
1.380290858E1,-1.160693942E1,-3.649334120E0,1.546340033E-2,1.216712461E1
1.381296358E1,-7.120214726E0,-7.318002351E-2,-1.294802902E0,7.237356397E0
1.382301758E1,-2.241611397E0,3.366860102E0,-2.122877105E0,4.568060398E0
1.383307158E1,2.268278208E0,5.834275180E0,-3.049860907E0,6.963153341E0
1.384312558E1,6.045655534E0,6.475739880E0,-4.035661705E0,9.735076950E0
1.385317833E1,8.763477037E0,5.753402925E0,-5.147301015E0,1.167882198E1
1.386323233E1,9.809119409E0,4.561866382E0,-5.848033678E0,1.229751789E1
1.387328633E1,1.055558782E1,3.634013830E0,-6.226452026E0,1.278261302E1
1.388334133E1,1.197651502E1,2.975623195E0,-6.225203061E0,1.382188115E1
1.389339533E1,1.334970321E1,2.333754014E0,-6.790540522E0,1.515824608E1
1.390344933E1,1.409791760E1,2.031770614E0,-7.415464618E0,1.605828410E1
1.391350333E1,1.418850033E1,2.244042084E0,-7.516586366E0,1.621259810E1
1.392355833E1,1.372072074E1,2.596696139E0,-6.979229586E0,1.561123487E1
1.393361233E1,1.298476445E1,3.018167536E0,-5.667625440E0,1.448569713E1
1.394366633E1,1.212422271E1,3.390884557E0,-4.214390914E0,1.327614270E1
1.395372033E1,1.115555074E1,3.650535723E0,-3.030530596E0,1.212257560E1
1.396377533E1,1.023081008E1,3.902448099E0,-1.855199174E0,1.110586962E1
1.397382933E1,9.172208521E0,3.956761715E0,-9.108188818E-1,1.003070105E1
1.398388333E1,8.304034991E0,3.975903745E0,-2.641859740E-1,9.210570121E0
1.399393833E1,7.823449997E0,4.237156171E0,1.587058581E-1,8.898598195E0
1.400399233E1,7.696237389E0,4.666635915E0,4.161078925E-1,9.010144643E0
1.401404633E1,7.699808283E0,5.001202485E0,5.773214753E-1,9.199585533E0
1.402410033E1,7.607282528E0,5.095551987E0,4.665544532E-1,9.168046170E0
1.403415533E1,7.556612311E0,5.069100938E0,3.295851807E-1,9.105317146E0
1.404420933E1,7.725650053E0,5.379887466E0,4.063708167E-1,9.423056571E0
1.405426333E1,8.036984466E0,5.776814007E0,5.559772378E-1,9.913314787E0
1.406431833E1,8.428222250E0,6.075200930E0,6.737803607E-1,1.041138687E1
1.407437233E1,8.752448019E0,6.355864357E0,8.612866795E-1,1.085099870E1
1.408442633E1,8.705225905E0,6.363207291E0,1.098717110E0,1.083875197E1
1.409448033E1,8.429315094E0,6.154126062E0,1.283068564E0,1.051536426E1
1.410453533E1,7.900947239E0,5.765362819E0,1.441777200E0,9.886510872E0
1.411458933E1,7.044606135E0,5.268533092E0,1.509047661E0,8.925309035E0
1.412464333E1,5.854691902E0,4.316361970E0,1.582465301E0,7.443963619E0
1.413469733E1,3.675581979E0,3.469882194E0,1.699486213E0,5.332751514E0
1.414475233E1,1.547266232E0,2.925326615E0,1.732692550E0,3.735477489E0
1.415480633E1,-8.610644853E-1,2.425765507E0,9.000607359E-1,2.726880942E0
1.416486033E1,-4.568789193E0,7.256211899E-1,-6.628231171E-1,4.673295977E0
1.417491433E1,-9.837364969E0,-2.444004873E0,-1.836814797E0,1.030149494E1
1.418496933E1,-1.678291225E1,-5.831780173E0,-1.432269627E0,1.782490393E1
1.419502333E1,-2.415933151E1,-8.664433390E0,1.902322469E0,2.573644372E1
1.420507733E1,-2.879421353E1,-9.896460439E0,6.889905181E0,3.121726214E1
1.421513233E1,-3.099421906E1,-9.360980031E0,1.109943501E1,3.422670040E1
1.422518633E1,-2.966778989E1,-8.317108780E0,1.276300763E1,3.335035860E1
1.423524033E1,-2.695621146E1,-8.518024372E0,1.321923195E1,3.120804654E1
1.424529433E1,-2.474665157E1,-8.852248296E0,1.364041625E1,2.961114688E1
1.425534933E1,-2.274138405E1,-8.628745494E0,1.281114892E1,2.749093185E1
1.426540333E1,-2.113132047E1,-8.316467925E0,1.069866217E1,2.510294238E1
1.427545733E1,-1.946825306E1,-7.646923726E0,7.907362220E0,2.236100841E1
1.428551133E1,-1.649842650E1,-5.803816448E0,4.665571722E0,1.810110278E1
1.429556633E1,-1.265508089E1,-3.603286127E0,1.758353641E0,1.327503487E1
1.430562033E1,-8.083035382E0,-1.010704528E0,-3.032705176E-1,8.151623006E0
1.431567433E1,-2.871545972E0,1.654721538E0,-2.525658608E0,4.166873053E0
1.432572933E1,1.755628254E0,3.007317443E0,-4.993151454E0,6.087507717E0
1.433578333E1,6.124942024E0,3.396905142E0,-7.215426108E0,1.005565777E1
1.434583733E1,9.654210294E0,3.277081076E0,-8.600821531E0,1.333855943E1
1.435589133E1,1.048391499E1,2.773399873E0,-8.476607959E0,1.376434172E1
1.436594633E1,1.016317767E1,2.371245191E0,-8.055466930E0,1.318345674E1
1.437600033E1,9.806028571E0,2.103561851E0,-7.840658938E0,1.273024357E1
1.438605433E1,9.981816924E0,1.916706327E0,-7.517102675E0,1.264188534E1
1.439610833E1,1.044602737E1,2.094291968E0,-7.071746571E0,1.278730411E1
1.440616333E1,1.075432767E1,2.709772226E0,-6.196353484E0,1.270406335E1
1.441621733E1,1.072538161E1,3.211958588E0,-5.465065026E0,1.245862851E1
1.442627133E1,1.033742353E1,3.364084429E0,-5.060326606E0,1.199109230E1
1.443632633E1,9.862442508E0,3.468147618E0,-4.618155773E0,1.142904995E1
1.444638033E1,9.451599010E0,3.535553443E0,-4.330092402E0,1.098100916E1
1.445643433E1,9.187246975E0,3.624152793E0,-4.185536659E0,1.072654220E1
1.446648833E1,9.091666049E0,3.776009662E0,-4.049995569E0,1.064514465E1
1.447654333E1,9.190579888E0,3.839674146E0,-3.917597065E0,1.070315014E1
1.448659733E1,9.317874942E0,3.637173373E0,-3.834705182E0,1.071245945E1
1.449665133E1,9.415223481E0,3.305835928E0,-3.746443216E0,1.065883770E1
1.450670533E1,9.445358861E0,3.012235243E0,-3.738192210E0,1.059539741E1
1.451676033E1,9.404215513E0,2.740412221E0,-3.696576991E0,1.046966141E1
1.452681433E1,9.374304081E0,2.562187918E0,-3.701401529E0,1.039917099E1
1.453686833E1,9.499859004E0,2.533431312E0,-3.753370412E0,1.052394340E1
1.454692333E1,9.769801562E0,2.597613274E0,-3.767183874E0,1.078834054E1
1.455697733E1,9.942601987E0,2.591771906E0,-3.684682000E0,1.091556216E1
1.456703133E1,9.989397254E0,2.525801573E0,-3.488601471E0,1.087833035E1
1.457708533E1,9.901934602E0,2.525700123E0,-3.209468844E0,1.071112320E1
1.458714033E1,9.562241778E0,2.490098766E0,-2.925536238E0,1.030513571E1
1.459719433E1,8.976320364E0,2.512019393E0,-2.719348796E0,9.709759348E0
1.460724833E1,8.238663704E0,2.610959837E0,-2.488517679E0,8.993631699E0
1.461730333E1,7.220254739E0,2.638923268E0,-2.063810433E0,7.959604765E0
1.462735733E1,5.966305309E0,2.586731314E0,-1.568872864E0,6.689494749E0
1.463741133E1,4.209738577E0,2.457726534E0,-1.029289318E0,4.982143625E0
1.464746533E1,1.572623268E0,2.029924648E0,-5.036234616E-1,2.616748863E0
1.465752033E1,-2.220179012E0,1.037335087E0,2.570260584E-1,2.464005139E0
1.466757433E1,-6.940599956E0,-3.169196000E-1,1.217162842E0,7.053640986E0
1.467762833E1,-1.292650396E1,-1.988649153E0,2.133014569E0,1.325137658E1
1.468768233E1,-1.892062623E1,-4.396626114E0,3.999852186E0,1.983227762E1
1.469773733E1,-2.291909497E1,-6.924200855E0,6.677741300E0,2.485601940E1
1.470779133E1,-2.472334691E1,-8.294374806E0,1.007632196E1,2.795662355E1
1.471784533E1,-2.621169017E1,-8.300122619E0,1.339575237E1,3.058416124E1
1.472790033E1,-2.840122684E1,-7.758611392E0,1.652967285E1,3.376471267E1
1.473795433E1,-2.935552051E1,-6.891712555E0,1.905447484E1,3.566952898E1
1.474800833E1,-2.690884433E1,-5.259472246E0,1.973792898E1,3.378363202E1
1.475806233E1,-2.280026317E1,-3.249385446E0,1.747496999E1,2.890994781E1
1.476811733E1,-1.931148102E1,-1.491244790E0,1.309082709E1,2.337791403E1
1.477817133E1,-1.662344465E1,-4.523750284E-1,8.345440879E0,1.860618012E1
1.478822533E1,-1.352860930E1,2.184778324E-1,3.825888750E0,1.406088286E1
1.479827933E1,-9.556072381E0,1.132662171E0,2.205937388E-1,9.625492431E0
1.480833433E1,-5.344871415E0,2.136243986E0,-2.203016265E0,6.163154183E0
1.481838833E1,-1.790395798E0,2.676539284E0,-3.352972965E0,4.648850111E0
1.482844233E1,1.653528267E0,3.178964505E0,-3.839567142E0,5.251880319E0
1.483849733E1,4.447384039E0,3.348508323E0,-4.129212477E0,6.931242923E0
1.484855133E1,6.382627648E0,2.734397483E0,-3.817417889E0,7.923859200E0
1.485860408E1,8.037668005E0,1.947866140E0,-3.541957313E0,8.996874517E0
1.486865808E1,9.512463262E0,9.175028341E-1,-3.563652238E0,1.019943067E1
1.487871308E1,1.062148828E1,-2.615780701E-2,-3.967822893E0,1.133844416E1
1.488876708E1,1.115790834E1,-5.899879697E-1,-4.594138042E0,1.208110544E1
1.489882108E1,1.117634461E1,-8.752188402E-1,-5.234502881E0,1.237241720E1
1.490887508E1,1.098228137E1,-6.566392480E-1,-5.946183870E0,1.250594986E1
1.491893008E1,1.059545180E1,9.357204191E-2,-6.402141561E0,1.237981305E1
1.492898408E1,1.013897839E1,1.185285577E0,-6.565799280E0,1.213727749E1
1.493903808E1,9.722420989E0,2.200478281E0,-6.521030658E0,1.191181831E1
1.494909308E1,9.730480791E0,3.144989843E0,-5.950998468E0,1.183163557E1
1.495914708E1,9.640481032E0,3.763739864E0,-5.238449167E0,1.159939490E1
1.496920108E1,9.256381529E0,3.836237737E0,-4.623674667E0,1.103520215E1
1.497925508E1,8.915399979E0,3.706825698E0,-4.315524648E0,1.057585299E1
1.498931008E1,8.647930208E0,3.621176268E0,-4.261542276E0,1.029856092E1
1.499936408E1,8.518295683E0,3.574692366E0,-4.355738289E0,1.021333652E1
1.500941808E1,8.514123695E0,3.623287113E0,-4.369730676E0,1.023293985E1
1.501947308E1,8.603499556E0,3.768138725E0,-4.288830355E0,1.032536391E1
1.502952708E1,8.771018191E0,3.797191785E0,-4.191396154E0,1.043634166E1
1.503958108E1,8.782171755E0,3.682205120E0,-4.078356904E0,1.035944836E1
1.504963508E1,8.643965212E0,3.505565120E0,-3.916551875E0,1.011664470E1
1.505969008E1,8.368633860E0,3.428950223E0,-3.861150092E0,9.833626612E0
1.506974408E1,8.083258746E0,3.413698346E0,-3.805659138E0,9.564279890E0
1.507979808E1,7.900590559E0,3.378011327E0,-3.641654094E0,9.332306052E0
1.508985308E1,7.882765907E0,3.493396772E0,-3.563063423E0,9.329375130E0
1.509990708E1,7.699355124E0,3.620561433E0,-3.485180265E0,9.194292572E0
1.510996108E1,7.099282279E0,3.573388144E0,-3.305384523E0,8.607814970E0
1.512001508E1,6.342770103E0,3.453165005E0,-3.106604626E0,7.861683880E0
1.513007008E1,4.993578885E0,3.103590387E0,-2.936612326E0,6.572046510E0
1.514012408E1,2.479075595E0,2.276383619E0,-2.814429785E0,4.387340105E0
1.515017808E1,-8.615767014E-1,9.854050876E-1,-2.763964806E0,3.058241169E0
1.516023208E1,-5.428892981E0,-7.975986604E-1,-2.688180798E0,6.110266657E0
1.517028708E1,-1.180273226E1,-3.255682898E0,-1.869694421E0,1.238546395E1
1.518034108E1,-1.933327359E1,-6.659303859E0,1.228930802E0,2.048492291E1
1.519039508E1,-2.480759125E1,-9.683142318E0,4.862026181E0,2.707063220E1
1.520045008E1,-2.707908719E1,-1.143872555E1,9.292550651E0,3.082974055E1
1.521050408E1,-2.557644632E1,-1.162933425E1,1.227734257E1,3.066152576E1
1.522055808E1,-2.381486969E1,-1.158932877E1,1.312283943E1,2.955790038E1
1.523061208E1,-2.246882662E1,-1.140601272E1,1.369103092E1,2.867733640E1
1.524066708E1,-2.125615385E1,-1.117724391E1,1.328334550E1,2.744452815E1
1.525072108E1,-2.066250008E1,-1.088535441E1,1.206438932E1,2.628648588E1
1.526077508E1,-2.006789672E1,-1.011962644E1,1.035718010E1,2.474668660E1
1.527082908E1,-1.814257934E1,-8.370206176E0,8.694915510E0,2.179025223E1
1.528088408E1,-1.483607713E1,-5.953057272E0,7.384503027E0,1.760905904E1
1.529093808E1,-1.105530023E1,-3.547475038E0,6.134691671E0,1.313159108E1
1.530099208E1,-7.436945534E0,-1.334254797E0,4.579236413E0,8.835032590E0
1.531104708E1,-3.986260334E0,8.701526664E-1,2.758951403E0,4.925368002E0
1.532110108E1,-8.574953449E-1,2.874230429E0,7.334131895E-1,3.087781361E0
1.533115508E1,1.563686968E0,4.462545285E0,-1.656340924E0,5.010278696E0
1.534120908E1,3.076273364E0,5.511953849E0,-4.061645269E0,7.506134513E0
1.535126408E1,3.790283884E0,5.877042300E0,-5.454943496E0,8.869176211E0
1.536131808E1,4.984126861E0,6.706563395E0,-6.652234576E0,1.068043716E1
1.537137208E1,6.290640421E0,7.533199475E0,-7.626011744E0,1.242888999E1
1.538142608E1,7.391390462E0,7.922902949E0,-7.804737153E0,1.335361248E1
1.539148108E1,8.265476696E0,7.994724884E0,-7.248065851E0,1.359294632E1
1.540153508E1,8.903924233E0,7.938391054E0,-6.412706895E0,1.354329092E1
1.541158908E1,9.196128895E0,7.691190657E0,-5.554875335E0,1.321286647E1
1.542164408E1,9.211187814E0,7.308303866E0,-4.793647964E0,1.269788751E1
1.543169808E1,9.023578146E0,6.892080930E0,-4.221430669E0,1.211388538E1
1.544175208E1,8.677863275E0,6.508615265E0,-3.909530831E0,1.153047332E1
1.545180608E1,8.347239482E0,6.171612160E0,-3.760092956E0,1.104099192E1
1.546186108E1,8.193352461E0,5.904127772E0,-3.644980868E0,1.073664914E1
1.547191508E1,8.209679056E0,5.696417130E0,-3.707424453E0,1.065800143E1
1.548196908E1,8.273865697E0,5.478620626E0,-4.086940616E0,1.073197191E1
1.549202408E1,8.426134209E0,5.198939531E0,-4.581972910E0,1.090977478E1
1.550207808E1,8.661158364E0,4.846382833E0,-5.199525422E0,1.120438108E1
1.551213208E1,8.824650022E0,4.395062569E0,-5.860126305E0,1.146874463E1
1.552218608E1,8.938449703E0,3.915022244E0,-6.342996390E0,1.163859465E1
1.553224108E1,8.895769706E0,3.490209163E0,-6.840840025E0,1.175216452E1
1.554229508E1,8.594950926E0,3.081294953E0,-7.533470786E0,1.183726075E1
1.555234908E1,8.298284839E0,2.855680722E0,-8.251949748E0,1.204620763E1
1.556240408E1,8.089685420E0,2.835962449E0,-8.696687216E0,1.221139066E1
1.557245808E1,8.042878459E0,2.951080384E0,-8.672118385E0,1.219025868E1
1.558251208E1,8.143928286E0,3.351976014E0,-8.038085496E0,1.192351163E1
1.559256608E1,8.152906101E0,3.829594715E0,-7.283270767E0,1.158368278E1
1.560262108E1,7.632116237E0,4.044160632E0,-6.574298792E0,1.085476108E1
1.561267508E1,6.523393518E0,3.967121227E0,-5.355478849E0,9.325978100E0
1.562272908E1,5.317891778E0,3.770948019E0,-3.901484478E0,7.597473465E0
1.563278308E1,3.983290533E0,3.371561848E0,-2.475278998E0,5.775901564E0
1.564283808E1,2.222895044E0,2.532106333E0,-1.326363103E0,3.621058400E0
1.565289208E1,-1.022610190E0,9.262410593E-1,-6.479618338E-1,1.524305953E0
1.566294608E1,-6.947248825E0,-2.060962692E0,1.279107660E-1,7.247633725E0
1.567300108E1,-1.519604108E1,-6.435740831E0,2.871675780E0,1.675067002E1
1.568305508E1,-2.441362925E1,-1.243386669E1,8.470088899E0,2.867697230E1
1.569310908E1,-3.097987000E1,-1.815567594E1,1.446942747E1,3.871363126E1
1.570316308E1,-3.107267467E1,-2.044597067E1,1.822471869E1,4.142087878E1
1.571321808E1,-2.847137472E1,-1.876537681E1,1.843633410E1,3.876411950E1
1.572327208E1,-2.592908956E1,-1.440234587E1,1.683384150E1,3.410459605E1
1.573332608E1,-2.337554967E1,-1.043177069E1,1.569072605E1,3.002394121E1
1.574338008E1,-2.134402113E1,-7.867915733E0,1.496758802E1,2.723049811E1
1.575343508E1,-1.893342579E1,-6.113872075E0,1.410450859E1,2.438834160E1
1.576348908E1,-1.574252302E1,-4.729964769E0,1.248489651E1,2.064151735E1
1.577354308E1,-1.254043921E1,-3.467722818E0,1.007722360E1,1.645716114E1
1.578359708E1,-9.559395354E0,-2.147595332E0,7.198546366E0,1.215784829E1
1.579365208E1,-6.600784341E0,-6.797863282E-1,3.983289363E0,7.739448140E0
1.580370608E1,-3.748610778E0,9.137214397E-1,5.393202746E-1,3.895874227E0
1.581376008E1,-1.374159413E0,2.571960955E0,-2.808435804E0,4.048531698E0
1.582381508E1,4.302375430E-1,4.239661118E0,-5.896258589E0,7.275004886E0
1.583386908E1,2.084333575E0,5.668534682E0,-8.096411473E0,1.010092128E1
1.584392308E1,3.696957645E0,6.480572603E0,-8.926651776E0,1.163402033E1
1.585398238E1,5.920812802E0,7.671713582E0,-9.522953167E0,1.358667916E1
1.586403738E1,7.156062836E0,8.200718783E0,-9.132831616E0,1.420808352E1
1.587409138E1,7.663088354E0,8.057557309E0,-8.291557032E0,1.387072712E1
1.588414537E1,7.969498242E0,7.728698791E0,-7.130879463E0,1.319451133E1
1.589420038E1,8.264029511E0,7.305179114E0,-5.890331851E0,1.250423268E1
1.590425438E1,8.369699222E0,6.740164420E0,-4.717430093E0,1.173609084E1
1.591430838E1,8.327662420E0,6.170523409E0,-3.727256747E0,1.101443432E1
1.592436237E1,8.191624609E0,5.664815269E0,-3.072995123E0,1.042286644E1
1.593441738E1,8.003618499E0,5.229735062E0,-2.779662825E0,9.956634136E0
1.594447138E1,7.814586203E0,4.843050504E0,-2.907406946E0,9.642401716E0
1.595452537E1,7.622267772E0,4.547840958E0,-3.465507015E0,9.528460644E0
1.596457937E1,7.395903343E0,4.288481568E0,-4.358030398E0,9.595982981E0
1.597463438E1,7.057223257E0,3.849310357E0,-5.584675670E0,9.788268113E0
1.598468838E1,6.902354488E0,3.803827205E0,-6.815722141E0,1.041948498E1
1.599474237E1,7.300079758E0,4.404783565E0,-7.575218736E0,1.140514014E1
1.600479738E1,8.021971740E0,5.190821841E0,-7.721073437E0,1.228460976E1
1.601485138E1,8.537806672E0,5.743598898E0,-7.345606763E0,1.264282444E1
1.602490538E1,8.687957323E0,5.880712012E0,-6.417535526E0,1.229829819E1
1.603495937E1,8.696019464E0,5.807237070E0,-5.192591209E0,1.167509145E1
1.604501438E1,8.843164061E0,5.768815016E0,-4.065706160E0,1.131418331E1
1.605506838E1,9.204011527E0,5.827835056E0,-3.122820709E0,1.133267395E1
1.606512238E1,9.586207761E0,5.883738531E0,-2.433869017E0,1.150814828E1
1.607517637E1,9.842856674E0,5.868959109E0,-1.961982634E0,1.162651643E1
1.608523138E1,9.888953784E0,5.685499209E0,-1.576548504E0,1.151528607E1
1.609528538E1,9.544075064E0,5.295964134E0,-1.192837840E0,1.097995752E1
1.610533938E1,9.102529006E0,4.736220997E0,-7.837718958E-1,1.029087567E1
1.611539437E1,8.590553820E0,4.005055624E0,-4.638707274E-1,9.489639695E0
1.612544838E1,7.568862813E0,3.034455540E0,-3.588459635E-1,8.162375581E0
1.613550238E1,5.902682925E0,1.868861631E0,-5.167114305E-1,6.212994464E0
1.614555638E1,3.010575804E0,1.937162811E-1,-1.135311909E0,3.223356294E0
1.615561137E1,-1.482051651E0,-2.979869443E0,-1.327842156E0,3.583191843E0
1.616566538E1,-8.254728345E0,-8.218929936E0,-2.274428017E-1,1.165088321E1
1.617571938E1,-1.745983856E1,-1.555529868E1,2.906899408E0,2.356402648E1
1.618577338E1,-2.634829048E1,-2.174705567E1,5.427624720E0,3.459228168E1
1.619582837E1,-3.228462238E1,-2.408410591E1,5.733887842E0,4.068437623E1
1.620588238E1,-3.571355360E1,-2.177826811E1,6.336240517E0,4.230719580E1
1.621593638E1,-3.717213218E1,-1.594254691E1,7.597503060E0,4.115403098E1
1.622599137E1,-3.457047205E1,-9.493298428E0,9.325380428E0,3.704325813E1
1.623604538E1,-3.032078822E1,-4.562730308E0,1.252249527E1,3.312071246E1
1.624609938E1,-2.441728727E1,-1.912352344E0,1.477098475E1,2.860145101E1
1.625615338E1,-1.827838444E1,-5.331426913E-1,1.555811002E1,2.400913089E1
1.626620837E1,-1.351505078E1,2.016698831E-1,1.501418097E1,2.020205184E1
1.627626238E1,-1.028450623E1,1.126345350E0,1.320468291E1,1.677508190E1
1.628631638E1,-8.169770640E0,2.383857781E0,1.023347992E1,1.330984754E1
1.629637038E1,-6.188888344E0,3.576956700E0,6.708081332E0,9.802821702E0
1.630642537E1,-4.087346998E0,4.651879882E0,2.912509811E0,6.843179474E0
1.631647938E1,-2.210792477E0,5.576787191E0,-6.537952354E-1,6.034534527E0
1.632653338E1,-1.020191782E0,5.655487205E0,-3.253315360E0,6.603740427E0
1.633658838E1,4.257644230E-1,6.109754466E0,-5.567851476E0,8.277158029E0
1.634664237E1,1.836368946E0,6.455783333E0,-7.252253042E0,9.881526376E0
1.635669638E1,3.609997854E0,6.714181148E0,-8.397986298E0,1.134189080E1
1.636675038E1,5.343183324E0,6.739595486E0,-9.282092321E0,1.265420852E1
1.637680538E1,6.180380645E0,6.542421527E0,-9.515918382E0,1.309782757E1
1.638685937E1,6.372747023E0,6.453761365E0,-9.141699504E0,1.287763993E1
1.639691338E1,6.442796082E0,6.347187089E0,-8.483615263E0,1.240032795E1
1.640696738E1,6.592124614E0,6.174223527E0,-7.554657002E0,1.177497285E1
1.641702237E1,6.487346018E0,5.808079069E0,-6.334567629E0,1.076783116E1
1.642707637E1,6.200110905E0,5.506885482E0,-4.841888663E0,9.602658422E0
1.643713038E1,6.114842713E0,5.477172271E0,-2.933142881E0,8.717456318E0
1.644718538E1,6.285307760E0,5.448739600E0,-1.209885398E0,8.405812248E0
1.645723937E1,6.600208390E0,5.219669665E0,1.245796072E-1,8.415653407E0
1.646729337E1,7.014278381E0,4.806929914E0,1.027721972E0,8.565213883E0
1.647734738E1,7.615274502E0,4.393735543E0,1.262390471E0,8.882057614E0
1.648740238E1,8.050539481E0,3.802990469E0,1.295798537E0,8.997389415E0
1.649745637E1,8.277945884E0,3.094809038E0,1.137313850E0,8.910427253E0
1.650751037E1,8.340454373E0,2.364134538E0,8.084705347E-1,8.706660432E0
1.651756538E1,8.400638010E0,1.688762127E0,5.319521981E-1,8.585197123E0
1.652761938E1,8.482302563E0,1.101257726E0,2.903827427E-1,8.558419683E0
1.653767337E1,8.394934051E0,6.342250431E-1,3.236382701E-2,8.418919559E0
1.654772738E1,8.225550739E0,2.615289261E-1,-2.453018063E-1,8.233362333E0
1.655778238E1,7.996960275E0,-1.833018053E-1,-3.934948824E-1,8.008733446E0
1.656783638E1,7.521861139E0,-6.710000096E-1,-5.455651740E-1,7.571411848E0
1.657789037E1,6.804945138E0,-1.091379732E0,-7.469385302E-1,6.932265518E0
1.658794438E1,5.818561957E0,-1.229416706E0,-8.446700621E-1,6.006712595E0
1.659799938E1,4.718762088E0,-9.523765053E-1,-8.994111834E-1,4.897211159E0
1.660805338E1,3.712075621E0,-6.269092262E-1,-8.925208244E-1,3.868993928E0
1.661810737E1,2.843846542E0,-5.393990658E-1,-7.572174237E-1,2.991954668E0
1.662816238E1,2.018417328E0,-7.533878629E-1,-8.394175082E-1,2.312190203E0
1.663821638E1,1.364684000E0,-1.049840088E0,-8.051744592E-1,1.900745259E0
1.664827038E1,9.246611416E-1,-1.462450908E0,-4.740273410E-1,1.794007470E0
1.665832437E1,-7.503965735E-2,-2.870091770E0,5.160694063E-1,2.917085077E0
1.666837938E1,-2.397833211E0,-5.134906672E0,1.582159492E0,5.883884712E0
1.667843338E1,-5.183050307E0,-7.442096347E0,2.405793611E0,9.382784843E0
1.668848738E1,-7.423392858E0,-8.716571842E0,2.326371465E0,1.168320976E1
1.669854238E1,-9.419792495E0,-8.856765854E0,1.590198829E0,1.302703053E1
1.670859638E1,-1.177689459E1,-8.545281753E0,1.438900369E0,1.462147464E1
1.671865038E1,-1.390664349E1,-7.647999614E0,2.145758575E0,1.601533362E1
1.672870437E1,-1.587401053E1,-6.104040567E0,5.052609451E0,1.774182583E1
1.673875938E1,-1.611097128E1,-4.726272252E0,8.678196566E0,1.890005663E1
1.674881338E1,-1.318763710E1,-4.118727835E0,1.092589316E1,1.761399537E1
1.675886738E1,-8.372229313E0,-4.518921214E0,1.137461901E1,1.482891872E1
1.676892137E1,-5.400458556E0,-6.065914382E0,1.123115875E1,1.385998545E1
1.677897638E1,-5.497219450E0,-7.660514994E0,1.006208165E1,1.378943069E1
