"Time (s)","Linear Acceleration x (m/s^2)","Linear Acceleration y (m/s^2)","Linear Acceleration z (m/s^2)","Absolute acceleration (m/s^2)"
3.182375047E-3,-1.325536745E-1,6.212008819E-2,1.215565968E-1,1.902771352E-1
1.323537499E-2,-1.202931596E-1,9.243146941E-2,1.366313034E-1,2.041620285E-1
2.328837500E-2,1.540741324E-3,4.720208690E-2,1.194632936E-1,1.284596800E-1
3.334137500E-2,4.512647152E-2,8.570702523E-2,8.291644156E-2,1.275038387E-1
4.339437501E-2,1.160145327E-1,5.877533466E-2,1.012287515E-1,1.648064680E-1
5.344737502E-2,1.474507720E-1,3.175388932E-2,9.158669293E-2,1.764600861E-1
6.350037502E-2,7.626267560E-2,8.380448744E-2,6.818789005E-2,1.322451366E-1
7.355337503E-2,5.328531079E-2,5.320059925E-2,1.277955759E-1,1.483284778E-1
8.360637503E-2,3.295614995E-2,6.236479416E-2,1.411073470E-1,1.577553763E-1
9.365837503E-2,-1.757263720E-2,7.618044913E-2,1.160748321E-1,1.399486515E-1
1.037113750E-1,1.330892064E-2,-3.080722511E-2,6.062276244E-2,6.929164317E-2
1.137643750E-1,-4.637148991E-2,2.458754182E-2,5.659169197E-2,7.718472575E-2
1.238173750E-1,-2.812342621E-2,5.465728685E-2,7.142198503E-2,9.423081266E-2
1.338703750E-1,5.056262791E-2,6.385232583E-2,8.557166219E-2,1.181363967E-1
1.439233750E-1,5.791703649E-2,8.329621822E-2,5.376982570E-2,1.148208920E-1
1.539763750E-1,3.472814865E-2,8.132789925E-2,3.635798693E-2,9.561472020E-2
1.640293750E-1,5.580670327E-2,8.592454165E-2,1.152357566E-1,1.541969345E-1
1.740823750E-1,6.535922639E-2,8.910674259E-2,2.077012861E-1,2.352693441E-1
1.841353750E-1,1.245953947E-2,5.341577679E-2,1.885194951E-1,1.963366634E-1
1.941883750E-1,8.943389431E-3,3.529759437E-2,1.612217689E-1,1.652826765E-1
2.042413750E-1,5.771508828E-2,7.943267047E-2,1.906630844E-1,2.144597685E-1
2.142943750E-1,2.314408354E-2,1.330120231E-1,2.135841697E-1,2.526777483E-1
2.243473750E-1,3.083660737E-2,1.013480347E-1,1.855841929E-1,2.136909290E-1
2.344003750E-1,2.212973781E-2,1.010455875E-1,1.709094357E-1,1.997748014E-1
2.444533750E-1,5.047565058E-2,3.440516308E-2,1.635887218E-1,1.746218097E-1
2.545063750E-1,3.505720071E-2,2.277548969E-2,1.468610072E-1,1.526954017E-1
2.645593750E-1,-4.634203456E-2,1.039708033E-2,7.895202935E-2,9.213634671E-2
2.746123750E-1,-1.593809192E-1,2.277914420E-2,7.362580061E-2,1.770365085E-1
2.846653750E-1,-2.256827898E-1,5.852244258E-2,9.393727362E-2,2.513599198E-1
2.947183750E-1,-2.157616729E-1,8.122089520E-2,1.986883879E-3,2.305512546E-1
3.047713750E-1,-1.214662573E-1,1.158827510E-1,5.491529524E-2,1.766311221E-1
3.148243750E-1,3.218782581E-2,1.138261391E-1,2.968105137E-2,1.219565943E-1
3.248773750E-1,1.172892988E-1,7.544735447E-2,3.416118801E-2,1.435829714E-1
3.349303750E-1,2.039841380E-1,9.376258805E-2,4.416401982E-2,2.288043097E-1
3.449833750E-1,2.096638309E-1,6.878401369E-2,6.005090475E-3,2.207401723E-1
3.550363750E-1,2.142346725E-1,-2.654782087E-2,-3.222166657E-2,2.182647876E-1
3.650883750E-1,1.682053178E-1,-1.537159905E-2,-1.032910645E-1,1.979857545E-1
3.751413750E-1,2.133752049E-1,-5.521540359E-2,-7.403218210E-2,2.325048017E-1
3.851943750E-1,3.109387024E-1,-5.814748988E-2,-1.142721355E-1,3.363363319E-1
3.952473750E-1,4.156900359E-1,-9.894044369E-2,-2.110915017E-1,4.765994539E-1
4.053003750E-1,3.992764630E-1,-8.786684051E-2,-2.278157079E-1,4.680195213E-1
4.153533750E-1,4.023797265E-1,-9.527950197E-2,-2.714499700E-1,4.946440276E-1
4.254063750E-1,4.123912561E-1,-4.977223054E-2,-3.315488219E-1,5.314776048E-1
4.354593750E-1,3.268368432E-1,-6.265744731E-2,-4.221689701E-1,5.375638726E-1
4.455123750E-1,3.104090177E-1,-2.599598989E-2,-4.958450568E-1,5.855696970E-1
4.555653750E-1,4.277575196E-1,2.102074027E-4,-5.002135116E-1,6.581717837E-1
4.656183750E-1,4.571273529E-1,-5.205469117E-2,-5.527168304E-1,7.191460229E-1
4.756713750E-1,4.025446180E-1,-1.018731147E-3,-7.711009794E-1,8.698505204E-1
4.857243750E-1,5.110624355E-1,1.537344092E-1,-9.013746053E-1,1.047518621E0
4.957773750E-1,6.562687538E-1,1.115075719E-1,-1.127809201E0,1.309609182E0
5.058303750E-1,5.097548519E-1,2.604729921E-1,-1.325622261E0,1.443942716E0
5.158833750E-1,3.494399131E-1,4.296184690E-1,-1.563903900E0,1.659058676E0
5.259363750E-1,3.215229667E-1,5.599162146E-1,-1.756171460E0,1.871101650E0
5.359893750E-1,2.516263741E-1,5.459194422E-1,-1.811456299E0,1.908590526E0
5.460423750E-1,1.077993409E-1,5.593826562E-1,-1.882125748E0,1.966450351E0
5.560921667E-1,1.444468381E-1,6.627468109E-1,-1.886221722E0,2.004477640E0
5.661451667E-1,3.011911015E-1,6.332850301E-1,-1.752573668E0,1.887665350E0
5.761981667E-1,3.675982951E-1,5.369062516E-1,-1.660781738E0,1.783701996E0
5.862511667E-1,3.308470830E-1,3.062689698E-1,-1.745809025E0,1.803083366E0
5.963041667E-1,2.725734394E-1,1.214165559E-1,-1.980920888E0,2.003268785E0
6.063571667E-1,2.069703841E-1,3.427020934E-1,-1.949286282E0,1.989974491E0
6.164101667E-1,5.989522263E-3,4.285538372E-1,-1.616517731E0,1.672370725E0
6.264631667E-1,-4.436728366E-2,3.645651251E-1,-9.855996537E-1,1.051799821E0
6.365161667E-1,1.187948106E-1,6.988539523E-1,2.845489025E-1,7.638567481E-1
6.465681667E-1,-1.200225797E-1,7.096856269E-1,8.271459568E-1,1.096462285E0
6.566211667E-1,-5.433691791E-1,3.999744013E-1,1.519748651E0,1.662788486E0
6.666741667E-1,-1.200964301E0,-6.950234413E-2,2.371185111E0,2.658884100E0
6.767271667E-1,-2.438587135E0,-5.970483729E-1,3.175072598E0,4.047747519E0
6.867801667E-1,-3.593641437E0,-1.401106599E0,4.141309782E0,5.659311371E0
6.968331667E-1,-1.296111217E0,-8.891159177E-2,6.863821337E0,6.985689150E0
7.068861667E-1,6.006947697E-1,1.433789026E0,9.092557749E0,9.224488690E0
7.169391667E-1,1.384207122E0,2.646604756E0,1.052060276E1,1.093634439E1
7.269921667E-1,5.414549468E-1,2.364687977E0,1.033158099E1,1.061256277E1
7.370451667E-1,-7.270347543E-2,2.242389369E0,9.955345409E0,1.020502318E1
7.470981667E-1,-2.697838242E-1,1.907264974E0,9.630444871E0,9.821197046E0
7.571511667E-1,-4.219375665E-1,1.321954887E0,9.448709900E0,9.550063603E0
7.672041667E-1,-2.231543807E-1,9.869807661E-3,1.140835745E1,1.141054403E1
7.772571667E-1,-9.143455569E-1,-3.118210472E-1,7.148596526E0,7.213576953E0
7.873101667E-1,-1.212025552E0,5.827647945E-1,5.734360882E0,5.889950379E0
7.973631667E-1,-2.281927072E-1,1.644679091E0,9.446473925E0,9.591293492E0
8.074161667E-1,1.487767378E-1,1.078032877E0,1.124561774E1,1.129815064E1
8.174691667E-1,5.394545778E-1,5.628623343E-1,9.421049647E0,9.453253498E0
8.275221667E-1,2.753422970E-1,9.112792039E-1,7.126249638E0,7.189553329E0
8.375751667E-1,3.104788189E-1,1.430363581E0,6.035337537E0,6.210284716E0
8.476281667E-1,6.290435330E-1,1.888029097E0,4.831108736E0,5.224936483E0
8.576811667E-1,3.450054944E-1,2.111345226E0,2.823502325E0,3.542452940E0
8.677341667E-1,-3.255715423E-1,1.775695752E0,5.805788130E-1,1.896355449E0
8.777871667E-1,-1.162297175E0,1.761772800E0,-1.519253392E0,2.600559361E0
8.878401667E-1,-7.222192068E-1,2.954422653E0,-3.186775215E0,4.405195803E0
8.978931667E-1,-1.116938788E-1,2.125921165E0,-4.552012362E0,5.025219683E0
9.079451667E-1,-8.518375059E-1,1.311916533E0,-7.407336404E0,7.570692486E0
9.179981667E-1,-9.623965133E-1,2.052800125E0,-1.021219722E1,1.046083971E1
9.280511667E-1,2.081320797E-1,3.428243587E0,-1.132079072E1,1.183032018E1
9.381041667E-1,1.263140668E0,4.016916701E0,-1.252746541E1,1.321622237E1
9.481571667E-1,1.254534590E0,3.662964857E0,-1.338288382E1,1.393171734E1
9.582101667E-1,5.173027302E-1,2.697988333E0,-1.374760156E1,1.401938985E1
9.682631667E-1,-1.385753418E0,1.345575884E0,-1.357793875E1,1.371463845E1
9.783161667E-1,8.256253883E-2,1.346838298E0,-1.013844746E1,1.022784957E1
9.883691667E-1,1.611940677E0,3.400633181E-1,-1.035659304E1,1.048680195E1
9.984221667E-1,3.979821672E0,8.720978158E-1,-8.630468668E0,9.543821278E0
1.008475167E0,4.814639468E0,-1.594997346E0,-8.054104528E0,9.518054922E0
1.018528167E0,3.742645741E0,-5.050935978E0,-8.848094434E0,1.085394520E1
1.028581167E0,2.812440562E0,-5.990404608E0,-8.589298423E0,1.084300773E1
1.038634167E0,3.014352520E0,-4.444230051E0,-7.859960012E0,9.519268525E0
1.048687167E0,2.681157122E0,-2.773520325E0,-8.293291901E0,9.146568158E0
1.058740167E0,2.742017574E0,-2.242835511E0,-7.987722259E0,8.738001968E0
1.068793167E0,2.939319587E0,-3.291874531E0,-8.105981026E0,9.229461845E0
1.078846167E0,1.947416050E0,-4.407476208E0,-7.292212329E0,8.740402533E0
1.088899167E0,5.588363801E-1,-2.511903618E0,-4.949843466E0,5.578790929E0
1.098952167E0,-4.910519479E-1,-1.319319985E0,-6.927283507E0,7.068875018E0
1.109005167E0,2.784139308E-1,-1.309774552E0,-7.172598762E0,7.296519492E0
1.119058167E0,2.088854203E-1,-1.328452021E0,-6.562759897E0,6.699121984E0
1.129111167E0,-1.483179141E-1,-1.727042971E0,-5.460515308E0,5.729040326E0
1.139164167E0,-1.783452668E-1,-2.294821790E0,-3.623140640E0,4.292454098E0
1.149217167E0,-3.784325279E-1,-2.755780458E0,-1.124219595E0,3.000234459E0
1.159269167E0,-3.306710087E-2,-2.951926476E0,2.000596184E0,3.566139151E0
1.169322167E0,5.387340912E-1,-2.355610175E0,6.872817278E0,7.285242004E0
1.179375167E0,1.885608203E0,-1.831748330E0,1.206382097E1,1.234692660E1
1.189428167E0,2.286054475E0,-1.997420854E0,1.556341111E1,1.585671784E1
1.199481167E0,8.559837665E-1,-2.130265062E0,1.762603397E1,1.777492085E1
1.209534167E0,-2.335831091E-2,-3.005628474E0,1.910285821E1,1.933787838E1
1.219587167E0,-4.293940821E-1,-4.839645963E0,1.972540659E1,2.031497520E1
1.229640167E0,1.604679897E-1,-6.169221234E0,2.052685403E1,2.143447636E1
1.239693167E0,1.226173913E0,-6.531881921E0,2.073214276E1,2.177132810E1
1.249746167E0,1.132887215E0,-6.355315304E0,2.060871973E1,2.159612916E1
1.259799167E0,8.191547133E-1,-4.960464349E0,2.010516921E1,2.072426235E1
1.269852167E0,8.572871840E-1,-2.317344095E0,1.902546213E1,1.918523480E1
1.279905167E0,3.466189239E-1,4.303236432E-1,1.770302309E1,1.771164447E1
1.289958167E0,-6.085795938E-1,3.389609864E0,1.516811711E1,1.555415060E1
1.300011167E0,-1.279056058E0,5.899397374E0,1.164077959E1,1.311284192E1
1.310064167E0,-2.022148582E0,7.606605420E0,8.045360602E0,1.125510365E1
1.320117167E0,-2.150184771E0,9.464180464E0,4.748963542E0,1.080493689E1
1.330170167E0,-1.500276107E0,1.121709035E1,3.415306038E-1,1.132212822E1
1.340223167E0,-8.348327065E-1,1.168747429E1,-3.728679374E0,1.229622099E1
1.350276167E0,2.226788559E-1,1.112846878E1,-6.797323292E0,1.304208600E1
1.360329167E0,1.709648527E0,1.042152169E1,-9.220811162E0,1.401978498E1
1.370382167E0,2.553286117E0,9.646965010E0,-1.134629276E1,1.511031315E1
1.380435167E0,2.655470596E0,7.654882371E0,-1.285149237E1,1.519241931E1
1.390488167E0,1.872583969E0,5.019487898E0,-1.405847813E1,1.504468800E1
1.400541167E0,1.073518534E0,2.401056489E0,-1.387639818E1,1.412345357E1
1.410593167E0,1.769258114E0,3.896280456E-1,-1.262330595E1,1.275264433E1
1.420646167E0,2.622216604E0,-8.601129971E-1,-1.117093243E1,1.150676086E1
1.430699167E0,2.228674140E0,-1.490340372E0,-9.548954566E0,9.918197222E0
1.440752167E0,1.747351228E0,-1.702236597E0,-8.317011716E0,8.667383090E0
1.450805167E0,9.860703546E-1,-1.806787590E0,-7.357071399E0,7.639588713E0
1.460858167E0,4.224730253E-1,-2.166022101E0,-7.031678526E0,7.369846545E0
1.470911167E0,1.152079824E0,-2.317323191E0,-7.049825944E0,7.509814947E0
1.480964167E0,7.833720924E-1,-2.498314981E0,-7.426824589E0,7.874831621E0
1.491017167E0,5.238942964E-1,-2.297628161E0,-7.446065437E0,7.810086484E0
1.501070167E0,9.800971314E-1,-2.390367925E0,-7.354679303E0,7.795239371E0
1.511123167E0,1.358300010E0,-2.789920011E0,-7.398871974E0,8.023212516E0
1.521176167E0,8.675613266E-1,-2.644659972E0,-7.789141459E0,8.271494043E0
1.531229167E0,8.910416982E-1,-1.662582096E0,-8.076186538E0,8.293547102E0
1.541282167E0,2.037571929E0,-8.670518880E-1,-9.459053625E0,9.714791497E0
1.551335167E0,2.015547515E0,-1.062426220E0,-7.349417979E0,7.694486720E0
1.561391375E0,2.549346263E0,-1.166501835E0,-5.593523092E0,6.256787792E0
1.571444375E0,2.934062063E0,-8.516085143E-1,-5.723508450E0,6.487873783E0
1.581497375E0,2.747585000E0,-4.374816585E-1,-6.247744662E0,6.839219758E0
1.591550375E0,2.759375326E0,1.564776304E-1,-6.833478380E0,7.371232205E0
1.601603375E0,3.169190884E0,6.363799614E-1,-7.196309221E0,7.888955363E0
1.611656375E0,3.457566496E0,5.272428507E-1,-6.038250035E0,6.978052349E0
1.621709375E0,2.962084259E0,1.164348744E-2,-3.886327325E0,4.886473044E0
1.631762375E0,2.009603381E0,-4.757584092E-1,-1.997770225E0,2.873314756E0
1.641815375E0,1.834946757E0,-7.897131054E-1,1.027327724E0,2.246347845E0
1.651868375E0,2.923045324E0,-8.390950343E-1,5.821284420E0,6.567771825E0
1.661921375E0,4.164882832E0,-9.636848742E-1,1.241165545E1,1.312722852E1
1.671973375E0,4.213746259E0,7.409154595E-1,1.856600313E1,1.905258737E1
1.682026375E0,3.008505304E0,3.441743054E0,2.053027348E1,2.103304136E1
1.692079375E0,-1.582092834E-1,2.446988561E0,2.017602577E1,2.032448767E1
1.702132375E0,-4.284489674E0,-1.414244854E0,2.122668856E1,2.170090430E1
1.712185375E0,-5.305081113E0,-3.312233659E0,2.186720660E1,2.274399925E1
1.722238375E0,-6.491596944E0,-5.813490082E0,1.773896944E1,1.976381882E1
1.732291375E0,-7.146752899E0,-8.445733491E0,1.578174030E1,1.927355229E1
1.742344375E0,-7.056650230E0,-9.344645249E0,1.805383030E1,2.151881725E1
1.752397375E0,-6.992557729E0,-6.538227904E0,1.897933695E1,2.125698753E1
1.762450375E0,-7.628410272E0,-1.984159369E0,1.738150108E1,1.908523281E1
1.772503375E0,-7.483762436E0,1.531790114E0,1.494578843E1,1.678480483E1
1.782556375E0,-5.979363896E0,3.671692995E0,1.361372605E1,1.531560182E1
1.792609375E0,-4.080362791E0,4.927621708E0,1.167160845E1,1.331004358E1
1.802662375E0,-2.346736587E0,5.779250541E0,7.551601832E0,9.794569907E0
1.812715375E0,-1.330406306E0,6.410087342E0,3.583415827E0,7.463247930E0
1.822768375E0,-2.830442677E-1,7.258611304E0,-1.395069056E0,7.396875678E0
1.832821375E0,1.908404158E0,7.341356422E0,-5.446353936E0,9.338109645E0
1.842874375E0,3.460092786E0,7.128190328E0,-7.569717675E0,1.095828295E1
1.852927375E0,3.712075036E0,5.513227372E0,-9.772267917E0,1.181830772E1
1.862980375E0,4.033713120E0,3.185842000E0,-1.223727979E1,1.327295926E1
1.873033375E0,5.440174599E0,1.600909027E0,-1.300453506E1,1.418718934E1
1.883086375E0,7.708602496E0,1.193583726E0,-1.302384724E1,1.518116568E1
1.893139375E0,7.192057126E0,7.132103285E-1,-1.268970459E1,1.460352551E1
1.903192375E0,4.330442357E0,-7.078717841E-2,-1.059302170E1,1.144420598E1
1.913245375E0,2.428587081E0,-3.421042522E-1,-8.673307709E0,9.013397647E0
1.923297375E0,1.514968260E0,-2.543787315E-1,-7.920477524E0,8.068072978E0
1.933350375E0,7.939599381E-1,-3.833398402E-1,-6.696321997E0,6.754113569E0
1.943403375E0,6.555841179E-1,-2.488506094E-1,-5.875634290E0,5.917330097E0
1.953456375E0,7.118034884E-1,1.040174349E-1,-5.778851761E0,5.823453573E0
1.963509375E0,6.264491965E-1,9.823651202E-2,-6.392650945E0,6.424023281E0
1.973562375E0,7.241536850E-1,1.689618013E-1,-7.317719638E0,7.355403955E0
1.983615375E0,7.159194897E-1,2.388894756E-1,-8.267088189E0,8.301467101E0
1.993668375E0,5.769588017E-1,2.865867303E-1,-8.953101071E0,8.976248225E0
2.003721375E0,7.463235493E-1,4.248659983E-1,-9.415196584E0,9.454281394E0
2.013774375E0,1.261577123E0,2.112116254E-1,-9.479186758E0,9.565101608E0
2.023827375E0,1.211831936E0,-1.215176762E-1,-9.324692211E0,9.403892173E0
2.033880375E0,1.188201583E0,-5.221417397E-2,-9.622703158E0,9.695925195E0
2.043933375E0,1.533001657E0,-5.868834636E-1,-1.018293308E1,1.031439054E1
2.053986375E0,2.433066486E0,-9.332637846E-1,-1.032808903E1,1.065177060E1
2.064039375E0,2.867733003E0,-8.824396399E-1,-1.044149929E1,1.086404619E1
2.074092375E0,2.904545318E0,-6.407052199E-1,-1.144053818E1,1.182086294E1
2.084145375E0,2.213474010E0,-3.481022894E-1,-1.121784815E1,1.143943877E1
2.094198375E0,1.426358092E0,-6.858674325E-2,-9.674497794E0,9.779320483E0
2.104251375E0,4.891651976E-1,-5.447358926E-1,-7.317711452E0,7.354245078E0
2.114304375E0,-2.265845767E-1,-1.637126096E0,-3.916716474E0,4.251139890E0
2.124357375E0,-1.068937095E0,-2.578425929E0,3.972504759E-1,2.819346506E0
2.134410375E0,-2.364451457E0,-2.061449327E0,5.391089562E0,6.237311175E0
2.144463375E0,-2.881766028E0,-4.392160157E-1,9.610984168E0,1.004333126E1
2.154516375E0,-1.778050279E0,1.855697356E0,1.217065895E1,1.243905201E1
2.164569375E0,-1.135772670E0,3.312842062E0,1.468770520E1,1.509945648E1
2.174622375E0,-1.680179584E0,2.093648189E0,1.730592581E1,1.751289338E1
2.184675375E0,-3.678183405E0,-1.000819664E-1,1.932742170E1,1.967455919E1
2.194728375E0,-6.136051149E0,-1.675620217E0,2.068034344E1,2.163643759E1
2.204780375E0,-6.935828043E0,-2.573725060E0,2.188313909E1,2.309981705E1
2.214833375E0,-6.985137028E0,-1.905740605E0,2.284614276E1,2.396602232E1
2.224886375E0,-6.962415333E0,-3.912147606E-1,2.290441845E1,2.394244476E1
2.234939375E0,-6.133154438E0,6.174225573E-1,2.223854923E1,2.307704196E1
2.244992375E0,-5.459624192E0,2.629905400E0,2.119888856E1,2.204805603E1
2.255045375E0,-4.693673440E0,5.315191534E0,1.926058101E1,2.052441990E1
2.265098375E0,-1.771233303E0,7.842485608E0,1.621667023E1,1.810033815E1
2.275151375E0,-1.037114793E-1,9.079634818E0,1.271460438E1,1.562407402E1
2.285204375E0,2.446598698E0,1.000274294E1,6.124959565E0,1.198147909E1
2.295257375E0,1.781728178E0,9.404385082E0,3.651273934E0,1.024445291E1
2.305310375E0,1.800154801E0,7.615959211E0,3.094644731E-1,7.831932091E0
2.315363375E0,2.405127905E0,5.429387071E0,-4.638573958E0,7.535200897E0
2.325416375E0,2.733372173E0,2.633687087E0,-5.700578594E0,6.848666104E0
2.335469375E0,3.326325156E0,1.619808836E-1,-6.244210020E0,7.076781446E0
2.345522375E0,4.441815443E0,-1.184104439E0,-8.102617707E0,9.315806002E0
2.355575375E0,4.440101624E0,-1.598096955E0,-1.140407963E1,1.234185758E1
2.365628375E0,4.168366310E0,-2.730870734E0,-1.233255666E1,1.330131146E1
2.375681375E0,5.370627816E0,-3.062350559E0,-1.224893446E1,1.372071534E1
2.385734375E0,5.423096051E0,-1.841400476E0,-1.103169385E1,1.242976250E1
2.395787375E0,4.015137393E0,-2.012638671E0,-9.972580662E0,1.093729435E1
2.405840375E0,4.243485197E0,-1.462933888E-1,-9.333799249E0,1.025418826E1
2.415893375E0,4.494297127E0,1.345784630E0,-1.024023345E1,1.126375710E1
2.425946375E0,3.988705347E0,-1.149952460E0,-1.269916773E1,1.336042746E1
2.435999375E0,3.158068310E0,-5.391922206E0,-1.188056572E1,1.342363819E1
2.446052375E0,1.431980044E0,-6.413072346E0,-1.076797507E1,1.261456899E1
2.456105375E0,1.059884143E0,-3.656551630E0,-1.071040572E1,1.136690437E1
2.466158375E0,2.605442111E0,-2.130603031E0,-8.454091501E0,9.099420915E0
2.476211375E0,3.311538425E0,-2.471121628E0,-6.226196503E0,7.472499698E0
2.486264375E0,3.081363950E0,-1.913566373E0,-5.933875481E0,6.954668812E0
2.496317375E0,2.752731135E0,-9.944236869E-1,-6.202722856E0,6.858584256E0
2.506369375E0,2.634128551E0,-3.262519754E-1,-6.196065216E0,6.740645202E0
2.516422375E0,2.296535463E0,-6.408989820E-1,-6.012788334E0,6.468264852E0
2.526475375E0,1.081788325E0,-1.767957985E0,-6.622708476E0,6.939467485E0
2.536528375E0,-3.800861571E-1,-3.106955167E0,-7.382709686E0,8.018855167E0
2.546581375E0,-9.438037562E-1,-3.953439620E0,-7.114472761E0,8.193666641E0
2.556634792E0,-1.056144337E0,-4.008220429E0,-6.933865133E0,8.078351165E0
2.566687792E0,-7.660777827E-1,-2.751673081E0,-6.593538471E0,7.185633548E0
2.576740792E0,2.117937889E-1,-1.059159088E0,-5.158036503E0,5.269916048E0
2.586793792E0,9.007417173E-1,4.027383801E-1,-2.644490402E0,2.822563256E0
2.596846792E0,8.834314008E-1,1.230231369E0,8.746557534E-2,1.517092775E0
2.606899792E0,-5.340971030E-2,1.184924803E0,3.466763290E0,3.664061557E0
2.616952792E0,-1.491313056E0,1.272796468E0,6.084362347E0,6.392455761E0
2.627005792E0,-3.614939920E0,1.899405439E0,8.096185185E0,9.067731040E0
2.637058792E0,-5.431195030E0,2.488860033E0,9.838691118E0,1.151052330E1
2.647111792E0,-5.601100498E0,2.602553002E0,1.192696104E1,1.343123258E1
2.657164792E0,-4.009133472E0,2.219090261E0,1.490256815E1,1.559115295E1
2.667217792E0,-2.295904256E0,1.559614382E0,1.782995445E1,1.804469033E1
2.677270792E0,-1.199996221E0,3.885141510E-1,1.920067979E1,1.924206430E1
2.687323792E0,-5.756159521E-1,-1.078497000E0,1.979071297E1,1.982843436E1
2.697376792E0,-2.940609702E-1,-2.008923204E0,2.024924928E1,2.035078231E1
2.707429792E0,-6.642250601E-2,-1.907479275E0,1.935506032E1,1.944893954E1
2.717482792E0,-3.175286606E-1,-1.698442485E0,1.789800902E1,1.798121960E1
2.727534792E0,-1.155266191E0,-1.390995301E0,1.676508760E1,1.686231509E1
2.737587792E0,-2.029712248E0,-3.159341249E-1,1.471064032E1,1.485336611E1
2.747640792E0,-2.314437591E0,9.893541509E-1,1.227286361E1,1.252831290E1
2.757693792E0,-1.897352774E0,1.906011185E0,1.019272482E1,1.054155897E1
2.767746792E0,-1.320741005E0,2.365378972E0,7.788253852E0,8.245985238E0
2.777799792E0,-1.288847660E0,2.833757756E0,5.535328093E0,6.350682515E0
2.787852792E0,-1.501475225E0,3.243183305E0,3.045486020E0,4.695492615E0
2.797905792E0,-1.048784301E0,2.985496511E0,1.230429590E-1,3.166745568E0
2.807958792E0,-9.061143583E-1,2.535857614E0,-2.012648465E0,3.361899896E0
2.818011792E0,-1.821851772E0,2.801386693E0,-4.557498220E0,5.651345088E0
2.828064792E0,-2.826534398E0,2.653878984E0,-6.591632863E0,7.647352102E0
2.838117792E0,-3.457567081E0,2.532815015E0,-8.117497702E0,9.179525639E0
2.848170792E0,-3.064763413E0,2.165884691E0,-8.856022089E0,9.618365688E0
2.858223792E0,-1.509986578E0,1.313238735E0,-8.591736712E0,8.821711578E0
2.868276792E0,2.580211449E-1,4.072369355E-1,-8.073478693E0,8.087859731E0
2.878329792E0,1.575310356E0,1.058989227E-2,-7.888569269E0,8.044329678E0
2.888382792E0,2.245153494E0,1.578514338E-2,-8.148974433E0,8.452617801E0
2.898435792E0,2.423150778E0,2.213828936E-1,-8.289127514E0,8.638883321E0
2.908488792E0,2.339952939E0,2.515306990E-1,-8.082130233E0,8.417807111E0
2.918541792E0,2.073489475E0,2.594763342E-1,-7.788483063E0,8.063941654E0
2.928594792E0,1.668002903E0,3.433619517E-1,-7.806993594E0,7.990574453E0
2.938647792E0,1.436060669E0,2.574752708E-1,-8.120887333E0,8.250901456E0
2.948700792E0,1.267551808E0,2.605155306E-1,-8.104901045E0,8.207556084E0
2.958753792E0,1.497423397E0,3.856243108E-1,-8.256429884E0,8.399977225E0
2.968806792E0,2.327109384E0,4.908893953E-1,-8.570504887E0,8.894378253E0
2.978858792E0,3.607748722E0,2.860840890E-1,-8.766897073E0,9.484523143E0
2.988911792E0,4.808632916E0,3.970814914E-2,-9.004193457E0,1.020784145E1
2.998964792E0,5.620909111E0,-8.979218245E-2,-9.177268701E0,1.076219971E1
3.009017792E0,5.849766793E0,-2.595288129E-1,-9.443692989E0,1.111172642E1
3.019070792E0,5.304727356E0,-5.011155908E-1,-9.675513455E0,1.104566928E1
3.029123792E0,4.388856626E0,-6.966328874E-1,-1.015745793E1,1.108698838E1
3.039176792E0,3.678337187E0,-5.188605747E-1,-1.054864367E1,1.118361587E1
3.049229792E0,3.057764880E0,-4.875873265E-1,-1.036027679E1,1.081309403E1
3.059282792E0,2.496031643E0,-4.048454243E-1,-9.675971292E0,1.000092467E1
3.069335792E0,2.332068992E0,-5.900609502E-1,-8.914878992E0,9.233730836E0
3.079388792E0,2.603987617E0,-1.302828645E0,-7.259822263E0,7.821964796E0
3.089441792E0,2.425203443E0,-1.806517449E0,-4.696683002E0,5.586049432E0
3.099494792E0,1.802485501E0,-1.268099400E0,-1.239013302E0,2.528276890E0
3.109547792E0,8.928874449E-1,-1.105117911E-1,2.868055769E0,3.005861730E0
3.119600792E0,-8.001807178E-1,1.100536618E0,6.375375931E0,6.518963744E0
3.129653792E0,-3.043785357E0,1.286895859E0,9.506043019E0,1.006407393E1
3.139706792E0,-5.101070005E0,1.441828655E0,1.205491917E1,1.316893546E1
3.149759792E0,-6.507291455E0,2.018932175E0,1.550814674E1,1.693881768E1
3.159812792E0,-6.206398416E0,1.631497128E0,1.946745901E1,2.049788097E1
3.169865792E0,-5.071221138E0,1.968661616E0,2.209965447E1,2.275934182E1
3.179918792E0,-4.393622400E0,2.041959680E0,2.302492489E1,2.352914540E1
3.189971792E0,-3.081822372E0,1.318041053E0,2.336959019E1,2.360874005E1
3.200024792E0,-1.808786753E0,8.947459093E-1,2.269127575E1,2.278083130E1
3.210076792E0,-1.442852210E0,4.607187858E-1,2.113405463E1,2.118825971E1
3.220129792E0,-1.253529600E0,-2.521828097E-1,1.985804249E1,1.989916541E1
3.230182792E0,-1.415010547E0,-6.938768023E-1,1.820995213E1,1.827802168E1
3.240235792E0,-1.561513558E0,-3.993633673E-1,1.570649832E1,1.578898050E1
3.250288792E0,-1.052153101E0,-4.003033072E-2,1.321991607E1,1.326178003E1
3.260341792E0,-1.525598498E-1,1.264996867E-1,1.083708916E1,1.083890115E1
3.270394792E0,4.331282602E-1,3.951609734E-1,8.021393450E0,8.042792125E0
3.280447792E0,9.500183232E-1,6.042816710E-1,4.339860760E0,4.483534607E0
3.290500792E0,1.745012341E0,8.920174523E-1,8.125863898E-1,2.121570137E0
3.300553792E0,2.407712082E0,1.249719408E0,-2.458999765E0,3.661359845E0
3.310606792E0,2.498160907E0,1.532737948E0,-5.641232278E0,6.357168800E0
3.320659792E0,2.125917511E0,1.580514962E0,-8.344257402E0,8.754666436E0
3.330712792E0,1.663273529E0,1.565534542E0,-1.092986108E1,1.116598587E1
3.340765792E0,1.851094282E0,1.251284123E0,-1.307977118E1,1.326923796E1
3.350818792E0,2.737517849E0,1.180980418E-1,-1.422307024E1,1.448460141E1
3.360871792E0,3.814019195E0,-1.189791660E0,-1.429047811E1,1.483846728E1
3.370924792E0,4.580912810E0,-2.064080866E0,-1.349815583E1,1.440296507E1
3.380977792E0,4.801460721E0,-1.917437375E0,-1.242821477E1,1.346072485E1
3.391030792E0,4.648078607E0,-1.698275254E0,-1.129942148E1,1.233554617E1
3.401083792E0,3.972778116E0,-1.484434538E0,-1.045633017E1,1.128367637E1
3.411136792E0,2.995018409E0,-7.950750753E-1,-9.641595511E0,1.012732164E1
3.421189792E0,2.288097638E0,-6.745969243E-2,-8.808629821E0,9.101203268E0
3.431241792E0,1.781643101E0,6.399283442E-1,-8.080885946E0,8.299667348E0
3.441294792E0,1.125713413E0,1.738459659E0,-7.359257088E0,7.645138165E0
3.451347792E0,4.230311421E-1,2.398324962E0,-7.168275915E0,7.570673522E0
3.461400792E0,1.346697818E-1,2.363622614E0,-6.798632483E0,7.199045177E0
3.471453792E0,-1.329030456E-1,1.892360422E0,-6.447263939E0,6.720558272E0
3.481506792E0,-8.590997478E-1,1.450799161E0,-6.449810402E0,6.666552692E0
3.491559792E0,-1.631023211E0,1.020623452E0,-6.727682953E0,6.997401437E0
3.501612792E0,-1.828628987E0,7.736777012E-1,-6.950425617E0,7.228476839E0
3.511665792E0,-1.568470283E0,7.992883596E-1,-7.149534420E0,7.363070238E0
3.521718792E0,-1.041418490E0,8.040121789E-1,-7.260395874E0,7.378640546E0
3.531771792E0,-3.710809699E-1,1.053807278E0,-7.260504633E0,7.345960685E0
3.541824792E0,5.731072408E-1,1.367483793E0,-7.645275396E0,7.787727507E0
3.551877792E0,1.294358806E0,1.017975394E0,-8.185137708E0,8.349138753E0
3.561930375E0,1.542072443E0,3.967104855E-1,-8.237799486E0,8.390274549E0
3.571983375E0,1.198621248E0,-5.061348407E-1,-7.637712023E0,7.747742272E0
3.582036375E0,7.537174266E-1,-1.065826376E0,-6.564698834E0,6.693231402E0
3.592089375E0,6.150852060E-1,-7.044707876E-1,-4.433147238E0,4.530717751E0
3.602142375E0,1.007270385E0,6.724955812E-1,-1.226099727E0,1.723416512E0
3.612195375E0,1.673965163E0,1.915767995E0,2.595888346E0,3.634688801E0
3.622248375E0,1.283100139E0,2.243157108E0,6.816252483E0,7.289677475E0
3.632301375E0,-9.510047485E-1,2.164337226E0,1.103933967E1,1.128963179E1
3.642354375E0,-3.289614582E0,1.912449701E0,1.359103651E1,1.411365656E1
3.652407375E0,-3.989440634E0,1.723696317E0,1.574836322E1,1.633700430E1
3.662459375E0,-2.806472894E0,1.381012934E-1,1.925809945E1,1.946200803E1
3.672512375E0,-4.841001932E-1,-1.303874419E0,2.159192904E1,2.163667815E1
3.682565375E0,1.478872082E0,-2.411479736E0,2.375333593E1,2.392118862E1
3.692618375E0,1.527286004E0,-3.029606736E0,2.510646116E1,2.533467015E1
3.702671375E0,2.886062124E-1,-2.616161520E0,2.388107655E1,2.402568233E1
3.712724375E0,-9.851858901E-1,-1.821792715E0,2.067183223E1,2.077532594E1
3.722777375E0,-1.136657500E0,-1.328081746E0,1.786579788E1,1.795111488E1
3.732830375E0,-1.930531338E-2,-1.020776503E0,1.587406315E1,1.590686136E1
3.742883375E0,1.277374692E0,-5.715182599E-1,1.344277451E1,1.351541734E1
3.752936375E0,2.488070075E0,-1.398190592E-1,1.063352185E1,1.092162209E1
3.762989375E0,3.570280641E0,8.449008809E-1,8.145834478E0,8.933945416E0
3.773042375E0,4.155872565E0,2.437336123E0,5.719899548E0,7.478578407E0
3.783095375E0,4.239321103E0,4.053311233E0,2.780302511E0,6.490859528E0
3.793148375E0,3.930189336E0,5.397443147E0,4.429733634E-2,6.676881233E0
3.803201375E0,3.853881125E0,6.641837642E0,-2.107090938E0,7.962803477E0
3.813254375E0,4.071506306E0,7.365815325E0,-3.822891467E0,9.243749141E0
3.823307375E0,3.813877984E0,7.348916287E0,-6.023891028E0,1.023911612E1
3.833360375E0,2.982714990E0,7.082858035E0,-7.319639863E0,1.061322733E1
3.843413375E0,2.555862693E0,6.172027897E0,-8.068843020E0,1.047533246E1
3.853466375E0,2.726276577E0,4.873902168E0,-8.492750368E0,1.016436496E1
3.863519375E0,2.854235290E0,3.444845294E0,-8.521754311E0,9.624651408E0
3.873572375E0,2.455146450E0,2.285846753E0,-8.505091501E0,9.142725026E0
3.883625375E0,1.763605610E0,1.387750096E0,-9.180764751E0,9.451063247E0
3.893677375E0,9.914405105E-1,7.346783808E-1,-9.550114653E0,9.629506555E0
3.903730375E0,1.914817311E-1,3.709372015E-1,-9.341802918E0,9.351125142E0
3.913783375E0,-4.846076950E-1,1.633932055E-1,-9.126720691E0,9.141037826E0
3.923836375E0,-9.358445994E-1,1.173911865E-1,-8.939251941E0,8.988871512E0
3.933889375E0,-1.096496703E0,3.331114903E-1,-8.684520915E0,8.759804324E0
3.943942375E0,-1.070622555E0,4.082998862E-1,-8.524038234E0,8.600707486E0
3.953995375E0,-8.860292456E-1,3.832700025E-1,-8.334946881E0,8.390666435E0
3.964048375E0,-4.393916515E-1,4.948967115E-1,-8.208917164E0,8.235551517E0
3.974101375E0,2.547133567E-1,1.611236818E-1,-8.081122758E0,8.086741294E0
3.984154375E0,7.697852097E-1,-4.285105678E-1,-8.325743948E0,8.372228071E0
3.994207375E0,1.073916364E0,-1.055259434E0,-8.861401527E0,8.988398403E0
4.004260375E0,1.054591536E0,-1.624367472E0,-9.360076051E0,9.558334409E0
4.014313375E0,4.009718632E-1,-2.041043860E0,-9.624973047E0,9.847169371E0
4.024366375E0,-2.702287059E-1,-2.141352844E0,-9.813162174E0,1.004771454E1
4.034419375E0,-4.906781647E-1,-1.976152191E0,-9.670721662E0,9.882752653E0
4.044472375E0,-7.602030851E-2,-1.906368304E0,-9.488825308E0,9.678730543E0
4.054525375E0,4.843444607E-1,-1.911398371E0,-9.152236186E0,9.362235871E0
4.064578375E0,8.971575203E-1,-1.418390383E0,-8.418099550E0,8.583770904E0
4.074631375E0,1.459319139E0,-8.203272262E-1,-8.010597151E0,8.183655407E0
4.084684375E0,1.957389061E0,-6.050383008E-1,-6.954526269E0,7.250026132E0
4.094737375E0,1.689880553E0,-3.359817423E-1,-4.896308699E0,5.190608720E0
4.104790375E0,7.281249677E-1,-5.381546322E-1,-1.614499272E0,1.851049507E0
4.114843375E0,-7.575871870E-2,-9.390949935E-1,3.127320727E0,3.266155801E0
4.124896375E0,-9.774448344E-1,3.027322814E-2,8.376071518E0,8.432964422E0
4.134949375E0,-1.920783883E0,1.280267601E0,1.119636548E1,1.143184568E1
4.145001375E0,-1.987846623E0,3.910602333E0,1.253742906E1,1.328275093E1
4.155054375E0,-1.106348165E0,5.641880735E0,1.437769050E1,1.548459908E1
4.165107375E0,3.376647171E-1,5.433251495E0,1.690161775E1,1.775665852E1
4.175160375E0,1.451204958E0,4.535043450E0,1.964918696E1,2.021789215E1
4.185213375E0,1.490372532E0,2.487430097E0,2.179584952E1,2.198789610E1
4.195266375E0,4.702900931E-2,-3.296981782E-2,2.299665711E1,2.299672883E1
4.205319375E0,-1.893709228E0,-1.145228056E0,2.272162280E1,2.282914419E1
4.215372375E0,-3.043827165E0,-2.871307406E-1,2.120786520E1,2.142710607E1
4.225425375E0,-2.816747037E0,6.131144750E-1,1.995807665E1,2.016518775E1
4.235478375E0,-1.278750395E0,8.153499301E-1,1.839303196E1,1.845544968E1
4.245531375E0,6.170392723E-1,1.141597374E0,1.643378670E1,1.648494244E1
4.255584375E0,2.092770084E0,1.877187920E0,1.396479171E1,1.424496151E1
4.265637375E0,2.730273149E0,2.582935886E0,1.094583567E1,1.157312697E1
4.275690375E0,2.629118657E0,2.623931592E0,7.589289476E0,8.449532334E0
4.285743375E0,2.071891431E0,2.200727372E0,4.431042241E0,5.363773896E0
4.295796375E0,1.486550792E0,1.935267436E0,1.259356935E0,2.746101454E0
4.305849375E0,1.238372301E0,1.701176789E0,-1.908075106E0,2.840478663E0
4.315902375E0,1.008656394E0,1.376564227E0,-4.720101101E0,5.019130522E0
4.325955375E0,3.894626424E-1,1.356385047E0,-7.078526418E0,7.217825004E0
4.336008375E0,-4.047113769E-1,1.493985526E0,-9.557404962E0,9.681930265E0
4.346061375E0,-1.175455165E0,1.738388616E0,-1.179712946E1,1.198231836E1
4.356114375E0,-1.465029383E0,1.581402570E0,-1.346325146E1,1.363474551E1
4.366167375E0,-9.561388231E-1,3.611117595E-1,-1.356847328E1,1.360691259E1
4.376219375E0,2.939300291E-1,-1.061494101E0,-1.253938203E1,1.258766326E1
4.386273375E0,1.252075105E0,-1.705255660E0,-1.179375445E1,1.198199620E1
4.396325375E0,1.462557034E0,-1.641063173E0,-1.134991336E1,1.156082586E1
4.406378375E0,8.852412602E-1,-1.165131174E0,-1.084170846E1,1.094001028E1
4.416431375E0,1.035904419E-1,-3.799747311E-1,-1.046631487E1,1.047372230E1
4.426484375E0,-7.461706446E-1,2.815087158E-1,-9.894109858E0,9.926199055E0
4.436537375E0,-1.424765895E0,6.703787430E-1,-9.208593990E0,9.342246453E0
4.446590375E0,-1.944214407E0,7.085698320E-1,-8.543404797E0,8.790438350E0
4.456643375E0,-2.382866386E0,6.222528691E-1,-8.032349963E0,8.401422306E0
4.466696375E0,-2.652929396E0,4.695232308E-1,-7.349815589E0,7.828044177E0
4.476749375E0,-2.649064094E0,4.552389215E-1,-6.656622326E0,7.178816326E0
4.486802375E0,-2.408529377E0,5.011620031E-1,-6.326487361E0,6.787976093E0
4.496855375E0,-2.161441538E0,3.584274490E-1,-6.236512746E0,6.610173295E0
4.506908375E0,-2.036082205E0,4.612193806E-1,-6.139477032E0,6.484715282E0
4.516961375E0,-1.887198500E0,5.145250835E-1,-6.250320361E0,6.549256359E0
4.527014375E0,-1.792884665E0,3.668828152E-1,-6.550114709E0,6.800958838E0
4.537067375E0,-1.636386862E0,1.441840057E-1,-7.014382462E0,7.204173257E0
4.547120375E0,-1.175366068E0,-5.213874489E-2,-7.139329274E0,7.235622042E0
4.557173375E0,-7.063804883E-1,-8.839118958E-2,-7.264138677E0,7.298938081E0
4.567226292E0,1.306007776E-1,1.328825073E-1,-7.390025137E0,7.392373492E0
4.577279292E0,1.234692502E0,4.564054410E-1,-6.805232821E0,6.931375422E0
4.587332292E0,1.937038704E0,6.696038407E-1,-6.105538623E0,6.440348603E0
4.597385292E0,2.144994783E0,8.404381397E-1,-5.066183177E0,5.565388654E0
4.607438292E0,2.109716046E0,5.870736077E-2,-3.070356567E0,3.725780159E0
4.617491292E0,1.725971322E0,-6.893933035E-1,6.620860755E-2,1.859737538E0
4.627544292E0,5.120067608E-1,-1.743170469E-1,3.894047404E0,3.931430088E0
4.637597292E0,-5.203251560E-1,1.676708092E0,7.271850570E0,7.480768610E0
4.647649292E0,-5.367401907E-1,4.403235807E0,1.010835886E1,1.103881762E1
4.657702292E0,3.919816960E-1,5.669838611E0,1.290747128E1,1.410331643E1
4.667755292E0,2.115085982E0,5.022168846E0,1.503802124E1,1.599493206E1
4.677808292E0,3.517805974E0,2.854606588E0,1.748675914E1,1.806406607E1
4.687861292E0,3.314795909E0,1.228827453E-1,2.002036821E1,2.029330223E1
4.697914292E0,1.420269094E0,-2.369368819E0,2.147239792E1,2.164936362E1
4.707967292E0,-4.403763226E-1,-3.612905674E0,2.174850578E1,2.205095287E1
4.718020292E0,-1.604229807E0,-2.815875217E0,2.054644220E1,2.080045658E1
4.728073292E0,-1.938187682E0,-9.306842123E-1,1.818504416E1,1.831170598E1
4.738126292E0,-1.434615237E0,1.169484061E-1,1.594277261E1,1.600761683E1
4.748179292E0,-3.130134407E-1,9.871168600E-1,1.352940101E1,1.356897450E1
4.758232292E0,6.534751734E-1,1.395736370E0,1.072133183E1,1.083153110E1
4.768285292E0,7.351024501E-1,1.175489590E0,8.189191582E0,8.305721531E0
4.778338292E0,5.036176144E-1,6.350185834E-1,5.611166480E0,5.669397549E0
4.788391292E0,8.120349973E-2,6.123101905E-2,2.784078643E0,2.785935594E0
4.798444292E0,-6.554969944E-1,2.273704425E-2,-7.024260163E-3,6.559288247E-1
4.808497292E0,-1.409466217E0,4.768128084E-1,-2.474925241E0,2.887767377E0
4.818550292E0,-1.939852092E0,9.787738334E-1,-4.341128436E0,4.854525770E0
4.828603292E0,-2.158076174E0,1.849668292E0,-6.139541937E0,6.765540684E0
4.838656292E0,-2.024872946E0,2.688738037E0,-8.333700839E0,8.987769043E0
4.848709292E0,-1.149146129E0,3.312626592E0,-9.389074148E0,1.002241214E1
4.858762292E0,-2.131665689E-1,3.701897665E0,-1.028512837E1,1.093313093E1
4.868814292E0,3.446211496E-1,3.082184315E0,-1.071678620E1,1.115652860E1
4.878867292E0,7.889045817E-1,1.826600296E0,-1.064991978E1,1.083418804E1
4.888920292E0,7.354676087E-1,5.766810955E-1,-1.067441026E1,1.071524653E1
4.898973292E0,2.031549297E-2,-7.727607116E-2,-1.049574742E1,1.049605155E1
4.909026292E0,-7.162089269E-1,-1.681196195E-1,-1.048986278E1,1.051562840E1
4.919079292E0,-1.160603748E0,6.260127749E-2,-1.056023753E1,1.062400756E1
4.929132292E0,-1.490521636E0,3.115803977E-1,-1.052770830E1,1.063726370E1
4.939185292E0,-1.985495311E0,6.659760819E-1,-9.849527178E0,1.006970215E1
4.949238292E0,-2.172043271E0,9.227227896E-1,-9.081866700E0,9.383469085E0
4.959291292E0,-2.139632155E0,6.321671887E-1,-8.334477350E0,8.627929868E0
4.969344292E0,-1.999365053E0,9.355983585E-2,-7.604278228E0,7.863285664E0
4.979397292E0,-1.938183297E0,1.018819586E-1,-7.373909626E0,7.625055908E0
4.989450292E0,-1.517653009E0,1.662093707E-1,-7.397009636E0,7.552923127E0
4.999503292E0,-6.296697698E-1,1.424089372E-3,-7.627703928E0,7.653649670E0
5.009556292E0,4.786217176E-1,1.621506722E-1,-7.877246135E0,7.893438938E0
5.019609292E0,1.942031934E0,1.492218936E-1,-8.621755148E0,8.839028059E0
5.029662292E0,3.203557894E0,1.275683384E-1,-9.037737179E0,9.589564650E0
5.039715292E0,3.302658843E0,-9.256902516E-2,-8.822200039E0,9.420580555E0
5.049768292E0,2.861682304E0,-2.452000648E-2,-8.296848178E0,8.776532147E0
5.059821292E0,2.430836066E0,1.134038240E-1,-6.522331079E0,6.961510404E0
5.069874292E0,2.695200380E0,1.227530833E-1,-3.539745312E0,4.450726938E0
5.079927292E0,3.018069595E0,-1.518058513E-1,5.516181386E-1,3.071818951E0
5.089980292E0,3.663477950E0,3.335545631E-1,5.342681633E0,6.486646003E0
5.100033292E0,4.217659215E0,1.177463975E0,9.565926109E0,1.052055193E1
5.110086292E0,3.622225843E0,2.158463405E0,1.199114475E1,1.271090228E1
5.120138292E0,2.104930977E0,2.608301985E0,1.415034374E1,1.454187751E1
5.130191292E0,1.640146037E0,1.464138414E0,1.701069873E1,1.715219087E1
5.140244292E0,2.692119482E0,-5.744290039E-2,2.051643663E1,2.069238940E1
5.150297292E0,2.765584192E0,-6.384038289E-1,2.230110508E1,2.248099872E1
5.160350292E0,1.999892472E0,-9.489426548E-1,2.241409902E1,2.252314136E1
5.170403292E0,2.006666471E0,-1.277698481E0,2.263016065E1,2.275485431E1
5.180456292E0,2.149649751E0,-8.218115419E-1,2.271835537E1,2.283462369E1
5.190509292E0,1.662200565E0,-3.586160217E-1,2.147119807E1,2.153842758E1
5.200562292E0,1.479399939E0,-1.431762381E-1,1.927645035E1,1.933366654E1
5.210615292E0,1.687474570E0,-9.376646183E-2,1.646452201E1,1.655103766E1
5.220668292E0,1.937985076E0,1.991218127E-1,1.275359946E1,1.290154001E1
5.230721292E0,2.247534334E0,8.009988163E-1,8.848086832E0,9.164150276E0
5.240774292E0,2.502758865E0,1.583741164E0,5.045211554E0,5.850316028E0
5.250827292E0,2.242492280E0,2.390697269E0,3.498576236E-1,3.296453460E0
5.260880292E0,1.430703889E0,2.905636409E0,-4.088601810E0,5.215966001E0
5.270933292E0,4.829069227E-1,3.014399298E0,-7.615726492E0,8.204821279E0
5.280986292E0,-6.135524315E-1,2.696971794E0,-1.024506910E1,1.061185866E1
5.291039292E0,-1.608755406E0,2.381411160E0,-1.234623798E1,1.267630882E1
5.301092292E0,-2.344918102E0,1.583057916E0,-1.331887669E1,1.361606366E1
5.311145292E0,-2.119371845E0,4.175215300E-1,-1.351867371E1,1.369016436E1
5.321198292E0,-9.693065335E-1,-8.027232333E-1,-1.273993685E1,1.280194949E1
5.331251292E0,-1.756287235E-1,-1.215521236E0,-1.192730135E1,1.199036508E1
5.341303292E0,-2.785856927E-1,-7.577794142E-1,-1.229153493E1,1.231802219E1
5.351356292E0,-7.018630756E-1,-6.853503925E-1,-1.233719935E1,1.237613852E1
5.361409292E0,-1.404754092E0,-1.020669060E0,-1.124475002E1,1.137802717E1
5.371462292E0,-2.345955545E0,-8.442045506E-1,-1.012082512E1,1.042340107E1
5.381515292E0,-2.846702322E0,-6.056646837E-1,-9.636089773E0,1.006602056E1
5.391568292E0,-2.837288598E0,-5.268601504E-1,-9.048516521E0,9.497549128E0
5.401621292E0,-2.366273742E0,-2.728882389E-1,-8.240150067E0,8.577516688E0
5.411674292E0,-1.752371793E0,-5.526408166E-2,-7.699225901E0,7.896324493E0
5.421727292E0,-1.270564001E0,2.146733598E-1,-7.260373655E0,7.373835036E0
5.431780292E0,-1.066898317E0,4.615061134E-1,-7.357999937E0,7.449256539E0
5.441833292E0,-1.089030759E0,5.806115574E-1,-7.580138583E0,7.679947833E0
5.451886292E0,-1.051641616E0,6.662916854E-1,-7.523462691E0,7.625771146E0
5.461939292E0,-9.045206997E-1,6.146147244E-1,-7.187357719E0,7.270077024E0
5.471992292E0,-9.033313760E-1,3.336630289E-1,-7.005502880E0,7.071379582E0
5.482045292E0,-4.719278982E-1,2.479561499E-1,-6.796701148E0,6.817576160E0
5.492098292E0,1.812155919E-1,-7.427791134E-2,-6.445482877E0,6.448457631E0
5.502151292E0,6.413989189E-1,-3.960001950E-1,-5.957932096E0,6.005427844E0
5.512204292E0,6.246663804E-1,-2.526862550E-1,-5.383965315E0,5.425969124E0
5.522257292E0,-2.784566885E-1,-1.771811593E-1,-4.709791290E0,4.721341471E0
5.532310292E0,-8.623279224E-1,-5.163974351E-1,-3.329594627E0,3.477998870E0
5.542363292E0,-2.359756435E-1,-1.736218421E0,1.520170235E0,2.319710425E0
5.552416292E0,1.303410150E0,-2.337013105E0,6.825941319E0,7.331710794E0
5.562468500E0,2.195904150E0,-1.873385915E0,9.616796885E0,1.004063505E1
5.572521500E0,2.178697987E0,4.055774957E-2,1.101154902E1,1.122508716E1
5.582574500E0,1.781614742E0,2.450512239E0,1.282765795E1,1.318059065E1
5.592627500E0,1.820208997E0,2.509312424E0,1.644370475E1,1.673335697E1
5.602680500E0,2.578984922E0,1.474081897E0,1.969102730E1,1.991383029E1
5.612733500E0,2.454178443E0,-1.120487317E-1,2.184683958E1,2.198453880E1
5.622786500E0,1.682018533E0,-2.397352278E0,2.417487808E1,2.435161626E1
5.632839500E0,1.526381440E0,-3.845937391E0,2.575373857E1,2.608402050E1
5.642892500E0,1.407664836E0,-2.708631727E0,2.417097682E1,2.436297040E1
5.652945500E0,9.871862957E-1,-9.534177482E-3,2.046090212E1,2.048470510E1
5.662998500E0,1.348014465E0,2.153245935E0,1.669721078E1,1.688935934E1
5.673051500E0,2.608832912E0,3.288413857E0,1.357272654E1,1.420699056E1
5.683104500E0,3.874625292E0,3.351613487E0,1.023695667E1,1.144732790E1
5.693157500E0,3.973186544E0,2.841407669E0,6.651591967E0,8.252483538E0
5.703210500E0,3.948865635E0,2.526134571E0,3.752790953E0,6.004859334E0
5.713263500E0,4.695961456E0,2.082947346E0,2.279301379E0,5.620136868E0
5.723316500E0,4.731154093E0,1.980787279E0,-7.861873806E-2,5.129670379E0
5.733369500E0,2.956656289E0,2.131735636E0,-3.230933973E0,4.870836434E0
5.743422500E0,5.702714874E-1,2.013963211E0,-6.185590514E0,6.530144515E0
5.753475500E0,-1.781540044E0,1.583894068E0,-8.488815191E0,8.817175778E0
5.763528500E0,-3.422819710E0,1.652839319E0,-1.090427133E1,1.154775761E1
5.773581500E0,-4.244433323E0,1.685204096E0,-1.217591443E1,1.300415392E1
5.783634500E0,-3.841516896E0,1.351879036E0,-1.243676691E1,1.308655799E1
5.793687500E0,-2.928696658E0,6.632729141E-1,-1.191873751E1,1.229119600E1
5.803739500E0,-2.174117425E0,7.226003721E-2,-1.160033206E1,1.180252990E1
5.813792500E0,-1.586799550E0,-1.881215921E-1,-1.136851920E1,1.148026791E1
5.823845500E0,-1.428953232E0,-4.111759123E-1,-1.104449691E1,1.114414129E1
5.833898500E0,-1.836871661E0,-4.197150399E-1,-1.080735490E1,1.097037730E1
5.843951500E0,-2.324795787E0,-4.183792435E-1,-1.035836124E1,1.062428182E1
5.854004500E0,-2.702664936E0,-6.926082489E-1,-9.862921979E0,1.024994312E1
5.864057500E0,-3.249827496E0,-1.088698783E0,-8.919346265E0,9.555175644E0
5.874110500E0,-3.760645518E0,-1.116329509E0,-8.450855067E0,9.316952165E0
5.884163500E0,-3.926114704E0,-8.527900904E-1,-8.380220702E0,9.293531440E0
5.894216500E0,-3.564037862E0,-7.970990159E-1,-7.906661139E0,8.709364103E0
5.904269500E0,-3.034756087E0,-7.975191383E-1,-7.483664787E0,8.114864135E0
5.914322500E0,-2.604581986E0,-5.074114341E-1,-7.456991544E0,7.915051268E0
5.924375500E0,-2.029416818E0,-1.094209930E-1,-7.458995969E0,7.730920155E0
5.934428500E0,-1.153079113E0,6.255675825E-1,-6.933801983E0,7.056807790E0
5.944481500E0,-1.021175283E-1,1.696268928E0,-6.343011008E0,6.566699697E0
5.954534500E0,8.644605482E-1,2.277975962E0,-5.803620567E0,6.294321107E0
5.964587500E0,1.450816410E0,2.380683182E0,-5.493524010E0,6.160464813E0
5.974640500E0,1.540135553E0,2.058143311E0,-5.150231055E0,5.756114256E0
5.984693500E0,8.809707463E-1,7.449975470E-1,-4.760595993E0,4.898408416E0
5.994746500E0,2.736131474E-1,-8.764221972E-1,-4.370156354E0,4.465562291E0
6.004799500E0,-8.857245326E-2,-1.886141323E0,-3.633182064E0,4.094555663E0
6.014852500E0,-6.001880354E-1,-1.888921674E0,-2.148664641E0,2.923184994E0
6.024905500E0,-3.255355453E-1,-7.850313860E-1,1.122975308E0,1.408304374E0
6.034958500E0,1.045498823E0,6.644536132E-1,4.433575839E0,4.603385832E0
6.045011500E0,2.265588782E0,1.772172658E0,7.847817684E0,8.358333019E0
6.055063500E0,3.174906829E0,1.966333255E0,1.165105666E1,1.223493446E1
6.065116500E0,3.530886195E0,9.633887127E-1,1.543349884E1,1.586153087E1
6.075169500E0,3.142853855E0,-2.354039320E-1,1.872575140E1,1.898912085E1
6.085222500E0,2.457813950E0,-1.769412188E0,2.171269042E1,2.192287832E1
6.095275500E0,2.246415177E0,-3.416532491E0,2.392778177E1,2.427463317E1
6.105328500E0,2.088234252E0,-4.016532539E0,2.436275614E1,2.477977285E1
6.115381500E0,2.298900077E0,-2.950046012E0,2.281711017E1,2.312159660E1
6.125434500E0,3.299511872E0,-1.858985977E0,2.060274153E1,2.094792510E1
6.135487500E0,4.711169479E0,-1.264140542E0,1.762103577E1,1.828371053E1
6.145540500E0,5.614388881E0,-5.584406698E-1,1.425017442E1,1.532647022E1
6.155593500E0,5.775872605E0,4.935123101E-2,1.114663374E1,1.255430538E1
6.165646500E0,4.657386205E0,3.580274995E-1,7.916791440E0,9.192117093E0
6.175699500E0,2.975898599E0,5.779820645E-1,5.072178327E0,5.909063269E0
6.185752500E0,1.570678484E0,1.009523098E0,2.599465088E0,3.200529101E0
6.195805500E0,4.152654549E-1,1.935427504E0,-9.311340094E-2,1.981664736E0
6.205858500E0,-6.269785157E-1,3.019882817E0,-3.256566412E0,4.485311481E0
6.215911500E0,-1.709685511E0,3.766122897E0,-6.522888903E0,7.723651071E0
6.225964500E0,-2.242642846E0,4.143598674E0,-8.857428344E0,1.003259158E1
6.236017500E0,-2.288398770E0,4.390963671E0,-1.023422017E1,1.136910698E1
6.246070500E0,-1.903972992E0,4.482588955E0,-1.170776530E1,1.268031881E1
6.256123500E0,-1.778563957E0,3.738415281E0,-1.222387329E1,1.290589466E1
6.266176500E0,-1.882916730E0,2.460164530E0,-1.136519564E1,1.177987508E1
6.276229500E0,-1.943157231E0,1.361306941E0,-1.038641150E1,1.065394577E1
6.286282500E0,-2.097069249E0,7.221238972E-1,-9.952501323E0,1.019663890E1
6.296334500E0,-2.395469913E0,3.392822763E-1,-9.809566721E0,1.010351364E1
6.306387500E0,-2.561414332E0,2.422457591E-1,-9.443753216E0,9.787951838E0
6.316440500E0,-2.731892243E0,4.318598530E-1,-8.814742500E0,9.238475172E0
6.326493500E0,-2.849296147E0,7.132495780E-1,-8.287582680E0,8.792681057E0
6.336546500E0,-2.918906372E0,1.029328348E0,-7.871953821E0,8.458557100E0
6.346599500E0,-2.769940660E0,1.481636499E0,-7.612293591E0,8.234976120E0
6.356652500E0,-2.263044219E0,1.709433642E0,-7.266084046E0,7.799968582E0
6.366705500E0,-1.767520175E0,1.697415714E0,-6.579142041E0,7.020716322E0
6.376758500E0,-1.384617597E0,1.811041147E0,-6.394138477E0,6.788375563E0
6.386811500E0,-1.104790906E0,1.908245991E0,-6.435821523E0,6.803070217E0
6.396864500E0,-8.347271642E-1,1.958361453E0,-6.362527260E0,6.709225153E0
6.406917500E0,-4.631940584E-1,1.895226288E0,-6.853217996E0,7.125519512E0
6.416970500E0,-1.513874830E-1,1.942789441E0,-7.550541732E0,7.797950335E0
6.427023500E0,-9.510686293E-2,1.958217027E0,-7.995658100E0,8.232509197E0
6.437076500E0,-4.046843335E-2,1.921140417E0,-8.493482439E0,8.708137696E0
6.447129500E0,2.481514469E-2,1.594791963E0,-8.549936137E0,8.697435549E0
6.457182500E0,-3.069305822E-2,1.145734571E0,-7.902712514E0,7.985393844E0
6.467235500E0,-6.060960621E-2,9.452225831E-1,-7.187631369E0,7.249769924E0
6.477288500E0,-2.039133136E-1,8.362689288E-1,-5.848634187E0,5.911636678E0
6.487341500E0,3.049659178E-2,4.975205764E-2,-3.677040274E0,3.677503295E0
6.497394500E0,1.080962625E0,-5.687542811E-1,-4.862351578E-1,1.314681048E0
6.507447500E0,2.309269821E0,-5.816507538E-1,3.188818817E0,3.979900772E0
6.517500500E0,2.900921799E0,4.290379867E-1,6.265133697E0,6.917464934E0
6.527553500E0,2.819250814E0,1.515547134E0,8.240166439E0,8.839988756E0
6.537606500E0,2.816389772E0,1.314917032E0,1.179201198E1,1.219477776E1
6.547659500E0,3.286773128E0,2.580073674E-1,1.603470956E1,1.637013610E1
6.557711500E0,3.309366769E0,-2.051248567E-1,1.930170799E1,1.958443044E1
6.567761000E0,2.619983552E0,-1.253768605E0,2.219537339E1,2.238461189E1
6.577814000E0,2.426740969E0,-2.452998767E0,2.476863944E1,2.500783426E1
6.587867000E0,3.003857937E0,-2.590047562E0,2.621155217E1,2.650994108E1
6.597920000E0,3.575361579E0,-1.646157121E0,2.524213761E1,2.554718291E1
6.607973000E0,3.686232097E0,-2.514342199E-1,2.267260676E1,2.297169179E1
6.618026000E0,3.183360734E0,1.387346054E0,1.928371259E1,1.959387879E1
6.628079000E0,2.653436058E0,2.739854981E0,1.514733845E1,1.562015974E1
6.638132000E0,2.449013890E0,3.518603242E0,1.149115987E1,1.226478671E1
6.648185000E0,2.604170342E0,3.977131368E0,7.943540112E0,9.257381196E0
6.658238000E0,2.647448216E0,4.262318494E0,4.390000634E0,6.666966820E0
6.668291000E0,1.881894052E0,4.251904019E0,1.057428605E0,4.768476514E0
6.678344000E0,6.837938637E-1,4.284113698E0,-2.448999272E0,4.981847214E0
6.688397000E0,-8.586830606E-1,3.947194501E0,-5.954379328E0,7.195298063E0
6.698450000E0,-2.151438999E0,3.525893843E0,-9.478278100E0,1.033916693E1
6.708503000E0,-2.895654042E0,2.940837232E0,-1.172817909E1,1.243316214E1
6.718556000E0,-2.912436721E0,2.367354015E0,-1.251134113E1,1.306217093E1
6.728609000E0,-2.631106126E0,1.871177421E0,-1.249078933E1,1.290131166E1
6.738662000E0,-2.490374170E0,1.615542415E0,-1.249149685E1,1.283937048E1
6.748715000E0,-2.334632850E0,1.698829570E0,-1.275097406E1,1.307378567E1
6.758768000E0,-1.940837348E0,1.671900803E0,-1.254736231E1,1.280618612E1
6.768821000E0,-1.262881637E0,1.329471629E0,-1.241409257E1,1.254878716E1
6.778874000E0,-7.754367629E-1,8.461011681E-1,-1.260229106E1,1.265444306E1
6.788927000E0,-6.608933897E-1,3.991962831E-1,-1.274221727E1,1.276558806E1
6.798980000E0,-7.681089592E-1,-4.926543774E-1,-1.272599241E1,1.275866696E1
6.809033000E0,-8.248466123E-1,-1.073088910E0,-1.237077640E1,1.244459724E1
6.819086000E0,-1.691018860E0,-2.110373565E0,-1.115153487E1,1.147475278E1
6.829138000E0,-2.294046011E0,-3.219036643E0,-1.017647307E1,1.091720881E1
6.839191000E0,-2.371340062E0,-3.296298242E0,-9.171979310E0,1.003065503E1
6.849244000E0,-2.326230255E0,-3.077421758E0,-8.244423212E0,9.102328601E0
6.859297000E0,-2.490726757E0,-2.148317024E0,-8.394993693E0,9.016368721E0
6.869350000E0,-2.390273931E0,-7.342633016E-1,-9.328475359E0,9.657795017E0
6.879403000E0,-1.741001736E0,-1.931973407E-1,-9.819030440E0,9.974054894E0
6.889456000E0,-6.661145879E-1,-1.223942835E-1,-9.133889962E0,9.158964726E0
6.899509000E0,-1.635366815E-1,6.300119050E-2,-7.687499310E0,7.689496670E0
6.909562000E0,-6.741273198E-1,-1.544512779E-1,-6.709719722E0,6.745268089E0
6.919615000E0,-1.311129937E0,1.533807258E-1,-5.843445368E0,5.990696214E0
6.929668000E0,-5.943847469E-1,8.848759554E-1,-4.491379659E0,4.616144487E0
6.939721000E0,1.319856760E0,1.608529557E0,-2.944666573E0,3.605613739E0
6.949774000E0,3.183411604E0,2.119763024E0,-1.412091470E0,4.076948251E0
6.959827000E0,4.256750483E0,2.705988201E0,5.199776852E-1,5.070766570E0
6.969880000E0,5.013137237E0,3.323296591E0,1.836591725E0,6.288792758E0
6.979933000E0,4.940858635E0,3.176936398E0,3.494625857E0,6.835014177E0
6.989986000E0,4.224108109E0,2.252916403E0,6.796521639E0,8.313328336E0
7.000039000E0,2.902000026E0,1.289228021E0,1.031280675E1,1.079063002E1
7.010092000E0,2.428083051E0,1.528172150E0,1.328426117E1,1.359052951E1
7.020145000E0,3.285820616E0,3.320102257E0,1.602596914E1,1.669285425E1
7.030198000E0,5.098210716E0,5.451334594E0,1.854467599E1,1.999034289E1
7.040251000E0,7.444130008E0,6.533199298E0,2.205683180E1,2.417853581E1
7.050304000E0,9.385845315E0,6.239318824E0,2.565861607E1,2.802477066E1
7.060357000E0,9.487426654E0,4.779175521E0,2.869621887E1,3.059942419E1
7.070409000E0,8.323530192E0,2.378696883E0,3.167373569E1,3.283542121E1
7.080462000E0,7.411208430E0,8.610564454E-1,3.285477736E1,3.369130190E1
7.090515000E0,6.320208621E0,1.155422384E0,3.057516081E1,3.124292715E1
7.100568000E0,5.107197887E0,1.223249647E0,2.818197965E1,2.866712031E1
7.110621000E0,4.070902873E0,1.460575852E0,2.532822968E1,2.569483899E1
7.120674000E0,3.438409556E0,1.976386519E0,2.003507045E1,2.042382951E1
7.130727000E0,3.178159343E0,2.620274451E0,1.410876068E1,1.469774347E1
7.140780000E0,2.837335375E0,3.067968272E0,8.794153869E0,9.736531396E0
7.150833000E0,2.421619685E0,2.961383178E0,3.463331559E0,5.160300157E0
7.160886000E0,1.273442731E0,3.228234605E0,-1.502789387E0,3.781736506E0
7.170939000E0,1.439345489E-1,3.826631346E0,-5.916060770E0,7.047240569E0
7.180992000E0,-8.136383039E-1,3.555178453E0,-9.875879409E0,1.052778682E1
7.191045000E0,-1.634553029E0,2.497795456E0,-1.352313864E1,1.384868313E1
7.201098000E0,-2.461968396E0,1.079744942E0,-1.654308169E1,1.676009216E1
7.211151000E0,-2.043210692E0,-6.211251605E-1,-1.788306354E1,1.801012127E1
7.221204000E0,-2.500851942E-1,-2.150215323E0,-1.649429837E1,1.663574005E1
7.231257000E0,4.795442621E-1,-2.822502743E0,-1.464185367E1,1.491912743E1
7.241310000E0,-1.041297964E0,-2.736315662E0,-1.392840214E1,1.423278297E1
7.251363000E0,-2.969373398E0,-2.611157472E0,-1.452558179E1,1.505416381E1
7.261416000E0,-4.019865451E0,-2.644329019E0,-1.435721355E1,1.514203999E1
7.271469000E0,-4.670203594E0,-2.242877611E0,-1.354173045E1,1.449895738E1
7.281522000E0,-4.952545465E0,-1.706119002E0,-1.261573965E1,1.365999398E1
7.291575000E0,-4.770538598E0,-1.480078947E0,-1.114341192E1,1.221164614E1
7.301628000E0,-3.983238200E0,-1.137854133E0,-9.778425035E0,1.061972197E1
7.311681000E0,-3.186910578E0,-1.002536991E0,-8.851019211E0,9.460550752E0
7.321733000E0,-3.053290299E0,-9.809739214E-1,-8.512089449E0,9.096183720E0
7.331786000E0,-3.422726447E0,-4.854526177E-1,-8.383827265E0,9.068587552E0
7.341839000E0,-3.431783491E0,-4.691504342E-2,-7.941355593E0,8.651269710E0
7.351892000E0,-3.059768721E0,6.325225532E-2,-7.293944859E0,7.909982116E0
7.361945000E0,-2.636755121E0,3.977477450E-1,-7.066844265E0,7.553209166E0
7.371998000E0,-2.087317847E0,5.112022936E-1,-7.228859501E0,7.541527251E0
7.382051000E0,-1.065184059E0,6.503485941E-1,-7.540246539E0,7.642832475E0
7.392104000E0,-1.135725161E-1,6.542924680E-1,-8.186991275E0,8.213879929E0
7.402157000E0,8.630479340E-1,4.942750428E-1,-8.928246896E0,8.983471055E0
7.412210000E0,1.741612039E0,4.003066328E-1,-8.975704068E0,9.151869831E0
7.422263000E0,2.302975148E0,2.962013070E-1,-9.402656060E0,9.685110776E0
7.432316000E0,2.749479498E0,4.947962125E-1,-9.849915433E0,1.023842248E1
7.442369000E0,3.239007516E0,3.698238185E-1,-9.932531912E0,1.045385716E1
7.452422000E0,3.714236167E0,4.835194185E-1,-1.026562440E1,1.092759743E1
7.462475000E0,4.410740708E0,1.020319836E0,-1.040428995E1,1.134658255E1
7.472528000E0,5.787326716E0,1.967900601E0,-9.274002698E0,1.110733583E1
7.482581000E0,7.575238032E0,1.915302703E0,-6.766395614E0,1.033618524E1
7.492634000E0,9.018801556E0,9.216042173E-1,-3.044025385E0,9.563170310E0
7.502687000E0,9.005330155E0,-6.165818008E-1,1.381906974E0,9.131583171E0
7.512740000E0,7.599457199E0,-3.162332392E0,6.733659393E0,1.063457873E1
7.522793000E0,4.128264644E0,-6.035434016E0,1.327132713E1,1.515246371E1
7.532846000E0,6.355802085E-1,-6.552027918E0,1.728657972E1,1.849753687E1
7.542899000E0,8.642710984E-1,-6.573686004E0,2.125602755E1,2.226609574E1
7.552952000E0,3.660441198E0,-7.622300516E0,2.758229856E1,2.884928923E1
7.563005292E0,4.995559922E0,-9.353537110E0,3.485512854E1,3.643246164E1
7.573057292E0,2.322223304E0,-1.178106950E1,3.608494534E1,3.803037733E1
7.583110292E0,-1.691629163E0,-1.335136265E1,3.143678078E1,3.419636940E1
7.593163292E0,-3.579039186E0,-1.265872137E1,2.791157867E1,3.085626309E1
7.603216292E0,-3.410842273E0,-1.129057231E1,2.530849415E1,2.792186857E1
7.613269292E0,-2.228873237E0,-9.811647745E0,2.088395285E1,2.318136739E1
7.623322292E0,-2.325753853E0,-8.412644683E0,1.584206251E1,1.808736206E1
7.633375292E0,-2.665835078E0,-5.844556339E0,1.100658357E1,1.274403379E1
7.643428292E0,-6.597004116E-1,-3.242117065E0,7.280892704E0,7.997369959E0
7.653481292E0,2.362088451E0,-1.530441162E0,5.706068544E0,6.362462592E0
7.663534292E0,3.234962412E0,2.517708368E-1,4.235982635E0,5.335908474E0
7.673587292E0,2.247938961E0,2.047335902E0,2.204805513E0,3.755793022E0
7.683640292E0,1.137900472E0,5.230666523E0,-2.227555275E-2,5.353053891E0
7.693693292E0,-3.707250206E-1,9.268120399E0,-2.902523936E0,9.719060550E0
7.703746292E0,-2.230578432E0,1.221388625E1,-8.059038994E0,1.480211495E1
7.713799292E0,-4.266962353E0,1.341043707E1,-1.210740845E1,1.856437797E1
7.723852292E0,-5.387653738E0,1.218104127E1,-1.303884067E1,1.863909722E1
7.733905292E0,-5.048005938E0,8.752956142E0,-1.137752391E1,1.521659146E1
7.743958292E0,-4.530581147E0,5.539205967E0,-9.770934168E0,1.211115695E1
7.754011292E0,-4.440751250E0,4.019248570E0,-9.527253209E0,1.125358540E1
7.764064292E0,-4.224241426E0,3.341602177E0,-1.009709712E1,1.144385822E1
7.774117292E0,-3.131690351E0,2.346611895E0,-1.058923504E1,1.128919707E1
7.784170292E0,-2.152713253E0,1.476481594E0,-1.074022418E1,1.105289952E1
7.794223292E0,-1.923501377E0,1.124113395E0,-9.993872713E0,1.023918846E1
7.804276292E0,-2.417607764E0,1.035858957E0,-8.834103801E0,9.217332642E0
7.814329292E0,-3.008923965E0,1.600808748E0,-8.219611137E0,8.898214389E0
7.824382292E0,-3.220138843E0,1.822981161E0,-7.918607000E0,8.740531523E0
7.834435292E0,-3.332086126E0,1.711656315E0,-6.919775097E0,7.868662700E0
7.844488292E0,-3.678302688E0,1.687497082E0,-6.116948295E0,7.334481134E0
7.854541292E0,-4.274989411E0,1.518246209E0,-6.129354333E0,7.625587882E0
7.864593292E0,-4.616536971E0,8.685087948E-1,-6.344945852E0,7.894622156E0
7.874646292E0,-4.662673257E0,-3.059055653E-1,-6.570166565E0,8.062331475E0
7.884699292E0,-4.377577932E0,-7.556711275E-1,-7.091505482E0,8.368015142E0
7.894752292E0,-3.889824837E0,-9.388715567E-1,-7.538920391E0,8.535076902E0
7.904805292E0,-2.941583629E0,-1.430345016E0,-8.060802514E0,8.699157332E0
7.914858292E0,-1.719048073E0,-1.569802863E0,-8.383483449E0,8.700701238E0
7.924911292E0,-6.409130153E-1,-1.433359548E0,-8.465430422E0,8.609808437E0
7.934964292E0,-2.740397018E-1,-1.637907723E0,-8.858008972E0,9.012333905E0
7.945017292E0,-5.004348287E-1,-2.031690508E0,-9.177258761E0,9.412772158E0
7.955070292E0,-1.017631286E0,-2.789803067E0,-9.091677158E0,9.564369720E0
7.965123292E0,-1.370740838E0,-3.836084540E0,-9.401880720E0,1.024645481E1
7.975176292E0,-1.819379569E0,-4.747236859E0,-9.688750382E0,1.094158507E1
7.985229292E0,-2.015342277E0,-5.189647136E0,-9.668536558E0,1.115682038E1
7.995282292E0,-1.665715911E0,-4.601523660E0,-9.127078541E0,1.035626343E1
8.005335292E0,-9.006208992E-1,-3.823694875E0,-7.627638440E0,8.579780222E0
8.015388292E0,9.493834618E-1,-2.787585803E0,-4.725615025E0,5.568069767E0
8.025441292E0,3.323572580E0,-1.071071767E0,8.102568591E-1,3.584668130E0
8.035494292E0,5.614863675E0,4.676138225E-1,8.031525505E0,9.810747103E0
8.045547292E0,5.579225480E0,5.902834368E-1,1.582302866E1,1.678822288E1
8.055600292E0,3.181838703E0,1.295329298E0,2.011334596E1,2.040462352E1
8.065653292E0,7.390912744E-1,3.686149359E0,2.158632273E1,2.191125925E1
8.075706292E0,6.429545707E-1,3.654833134E0,2.503240266E1,2.530597516E1
8.085759292E0,3.046966827E0,3.669850830E0,2.947174210E1,2.985524065E1
8.095812292E0,5.292469254E0,4.571399975E0,2.927360569E1,3.009737395E1
8.105865292E0,4.949307861E0,4.007758499E0,2.780922433E1,2.852912081E1
8.115918292E0,3.302118268E0,3.922733552E0,2.677894493E1,2.726543077E1
8.125971292E0,1.533111293E0,4.521515332E0,2.424503531E1,2.471065091E1
8.136023292E0,-1.864785245E-1,5.019444628E0,2.013559578E1,2.075263396E1
8.146076292E0,-1.758563848E0,5.628983531E0,1.535137353E1,1.644514128E1
8.156129292E0,-2.301294073E0,5.632681310E0,1.119035454E1,1.273762489E1
8.166182292E0,-1.426599728E0,5.570687960E0,7.567003983E0,9.504067572E0
8.176235292E0,1.189586204E0,5.397636690E0,4.881702354E0,7.374321327E0
8.186288292E0,3.908401149E0,4.953273443E0,1.681463340E0,6.529765410E0
8.196341292E0,3.874109860E0,4.094098193E0,-2.263714457E0,6.074106549E0
8.206394292E0,2.547631860E0,2.259638363E0,-5.688554379E0,6.629935486E0
8.216447292E0,1.245692431E0,-1.066163760E-1,-8.516387152E0,8.607669069E0
8.226500292E0,5.449264388E-1,-2.146146246E0,-1.026863688E1,1.050465573E1
8.236553292E0,2.494468975E-1,-3.653283037E0,-1.049029781E1,1.111103276E1
8.246606292E0,4.371917827E-1,-3.933082831E0,-9.689960756E0,1.046688190E1
8.256659292E0,1.103430405E0,-3.657496541E0,-9.430701061E0,1.017511484E1
8.266712292E0,1.581926773E0,-3.290748650E0,-9.138496984E0,9.840916934E0
8.276765292E0,1.353829521E0,-2.899291303E0,-8.989755512E0,9.542245469E0
8.286818292E0,6.220738712E-1,-2.484847382E0,-8.661488147E0,9.032320817E0
8.296871292E0,-2.623245129E-1,-2.356681969E0,-8.252415771E0,8.586333916E0
8.306924292E0,-1.254920068E0,-2.479771414E0,-7.440336919E0,7.942462094E0
8.316977292E0,-1.732807010E0,-2.524945540E0,-6.699778286E0,7.366478073E0
8.327030292E0,-1.616929229E0,-2.493724625E0,-6.701858141E0,7.331304466E0
8.337083292E0,-1.199241419E0,-2.558815244E0,-7.285072294E0,7.813961464E0
8.347136292E0,-6.876900096E-1,-2.840085905E0,-8.089473751E0,8.601080808E0
8.357189292E0,-2.215529014E-1,-3.135827256E0,-8.502604680E0,9.065141180E0
8.367242292E0,2.236253008E-2,-3.361986740E0,-8.826572002E0,9.445201334E0
8.377295292E0,6.215297878E-2,-3.679656611E0,-9.151746190E0,9.863984696E0
8.387348292E0,-2.152001940E-1,-4.370846325E0,-9.553107258E0,1.050773368E1
8.397401292E0,-6.960437804E-1,-4.706674724E0,-1.041866942E1,1.145364293E1
8.407454292E0,-9.701904863E-1,-4.663499176E0,-1.085442264E1,1.185360642E1
8.417507292E0,-8.138393019E-1,-4.711376763E0,-1.121212840E1,1.218897980E1
8.427560292E0,-3.996525121E-1,-4.588155464E0,-1.159146885E1,1.247289232E1
8.437612292E0,1.612852111E-1,-4.225722233E0,-1.174403440E1,1.248219073E1
8.447665292E0,8.602461675E-1,-3.876637904E0,-1.175998327E1,1.241231451E1
8.457718292E0,1.242037190E0,-3.715126990E0,-1.154567112E1,1.219210181E1
8.467771292E0,9.974829501E-1,-3.655619584E0,-1.069921649E1,1.135040793E1
8.477824292E0,9.171334362E-1,-3.385855951E0,-9.730286078E0,1.034328871E1
8.487877292E0,8.449632999E-1,-3.398613114E0,-8.689092268E0,9.368290053E0
8.497930292E0,9.311787406E-1,-3.466455141E0,-5.663677985E0,6.705270570E0
8.507983292E0,1.816528467E0,-2.895352911E0,-1.608156797E0,3.777434636E0
8.518036292E0,2.064009530E0,-2.229547568E0,2.783103327E0,4.120276911E0
8.528089292E0,1.859398790E0,-2.236671961E0,7.428218565E0,7.977374027E0
8.538142292E0,1.280798090E0,-1.276976788E0,1.133927610E1,1.148260842E1
8.548195292E0,8.559437862E-1,2.034407709E0,1.280027544E1,1.298916879E1
8.558248292E0,6.350646302E-1,3.559987203E0,1.644684587E1,1.683970175E1
8.568301042E0,1.145349678E0,3.623467500E0,2.159844752E1,2.193021381E1
8.578354042E0,2.309244386E0,4.970120441E0,2.338916199E1,2.402264776E1
8.588407042E0,2.065121963E0,4.587030167E0,2.405020609E1,2.457067332E1
8.598460042E0,1.583278064E0,2.810484669E0,2.589135864E1,2.609153207E1
8.608513042E0,1.096374277E0,2.216819056E0,2.618588056E1,2.630240795E1
8.618566042E0,1.617032871E-1,2.521364998E0,2.432174611E1,2.445262283E1
8.628619042E0,-8.213025418E-1,2.779969804E0,2.198973851E1,2.217997677E1
8.638672042E0,-1.491849246E0,3.514750219E0,1.924408017E1,1.961921774E1
8.648725042E0,-1.060874077E0,4.117851922E0,1.671324151E1,1.724571251E1
8.658778042E0,2.311603153E-1,4.419336115E0,1.424676666E1,1.491825483E1
8.668831042E0,1.296625333E0,4.835222544E0,1.153380595E1,1.257335651E1
8.678884042E0,2.103581147E0,4.890490719E0,8.369840140E0,9.919484719E0
8.688937042E0,2.787988091E0,4.598090175E0,4.859584676E0,7.247818574E0
8.698990042E0,3.176294081E0,4.791010285E0,5.354447401E-1,5.773155525E0
8.709042042E0,3.163739524E0,5.197340902E0,-4.569231243E0,7.609170413E0
8.719095042E0,2.870211638E0,4.776835172E0,-8.712357169E0,1.034221623E1
8.729148042E0,2.116500278E0,3.575236741E0,-1.115846850E1,1.190685981E1
8.739201042E0,1.337012490E0,2.243901313E0,-1.268931751E1,1.295536469E1
8.749254042E0,4.288916601E-1,3.164698760E-1,-1.284971950E1,1.286076951E1
8.759307042E0,-1.727368368E-1,-2.207793294E0,-1.233613750E1,1.253333465E1
8.769360042E0,-8.557230538E-1,-4.227650645E0,-1.155287255E1,1.233183507E1
8.779413042E0,-1.072808829E0,-5.031462995E0,-1.123729715E1,1.235893952E1
8.789466042E0,-1.114782774E0,-5.354159718E0,-1.096996596E1,1.225764742E1
8.799519042E0,-1.258754526E0,-5.030681223E0,-1.083795805E1,1.201472227E1
8.809572042E0,-1.622807288E0,-4.126643503E0,-1.057657699E1,1.146850779E1
8.819625042E0,-1.989072053E0,-3.333289483E0,-1.015506291E1,1.087163875E1
8.829678042E0,-2.340285354E0,-2.232393115E0,-9.586998889E0,1.011785858E1
8.839731042E0,-2.588113303E0,-1.672948332E0,-7.968768509E0,8.543907662E0
8.849784042E0,-1.841233830E0,-1.097521501E0,-7.489120824E0,7.789841217E0
8.859837042E0,-1.600978171E0,-5.625297739E-1,-6.957311298E0,7.161267440E0
8.869890042E0,-1.407957927E0,-3.212888588E-1,-7.109651147E0,7.254840555E0
8.879943042E0,-1.036607255E0,-6.112936521E-1,-6.953012425E0,7.056388334E0
8.889996042E0,-5.496341783E-1,-9.672654167E-1,-6.726590694E0,6.817970554E0
8.900049042E0,-1.065875785E-1,-1.332441576E0,-6.997648315E0,7.124173174E0
8.910102042E0,1.120041467E-1,-1.840877150E0,-7.494245324E0,7.717842094E0
8.920155042E0,-1.073623346E-1,-2.260508282E0,-8.486447069E0,8.783006787E0
8.930208042E0,-4.596494763E-1,-2.852959428E0,-9.564048568E0,9.991080029E0
8.940261042E0,-7.489634210E-1,-3.670628217E0,-1.040885078E1,1.106248761E1
8.950314042E0,-1.033703381E0,-3.895748944E0,-1.067643340E1,1.141190749E1
8.960367042E0,-9.678179786E-1,-3.659353909E0,-1.089454624E1,1.153337246E1
8.970420042E0,-3.545337881E-1,-3.753832342E0,-1.003164806E1,1.071685189E1
8.980473042E0,-1.674344355E-1,-3.792342104E0,-8.089051582E0,8.935471360E0
8.990526042E0,-1.333042377E-1,-3.282138040E0,-4.214739701E0,5.343615899E0
9.000578042E0,7.191069531E-1,-2.957328719E0,8.048698193E-1,3.148130141E0
9.010631042E0,1.472498763E0,-1.800813197E0,6.034282699E0,6.467128302E0
9.020684042E0,1.874065653E0,1.813230929E0,9.368525278E0,9.724669370E0
9.030737042E0,2.116413446E0,6.846573220E0,1.158868909E1,1.362543524E1
9.040790042E0,1.877014989E0,1.033611492E1,1.417478393E1,1.764321276E1
9.050843042E0,2.448997810E0,1.058393512E1,1.779287375E1,2.084714919E1
9.060896042E0,3.805361222E0,9.271194280E0,2.255010525E1,2.467677176E1
9.070949042E0,4.409502268E0,8.219746208E0,2.577398397E1,2.740996512E1
9.081002042E0,3.619541679E0,5.900142310E0,2.656166006E1,2.744876220E1
9.091055042E0,2.695852929E0,3.858533755E0,2.610973811E1,2.653063004E1
9.101108042E0,2.103599858E0,3.370516366E0,2.516626648E1,2.547796070E1
9.111161042E0,1.523966540E0,3.361128369E0,2.335260520E1,2.364241585E1
9.121214042E0,8.919279899E-1,3.435039221E0,2.036443007E1,2.067135802E1
9.131267042E0,2.507907338E-1,3.231734749E0,1.682705405E1,1.713641601E1
9.141320042E0,-1.616088545E-1,2.575511969E0,1.255391821E1,1.281640518E1
9.151373042E0,4.757692266E-1,1.622680404E0,7.632102204E0,7.817188248E0
9.161426042E0,1.546411369E0,3.431134450E-1,3.131794431E0,3.509594182E0
9.171479042E0,1.977994503E0,-8.468832332E-1,-1.239317942E0,2.483059086E0
9.181532042E0,1.926313303E0,-1.794151757E0,-5.028335904E0,5.675722459E0
9.191585042E0,2.336675283E0,-2.615511894E0,-7.805504308E0,8.557268918E0
9.201638042E0,2.896579072E0,-3.457251916E0,-9.176086979E0,1.022464344E1
9.211691042E0,2.514360618E0,-3.787284263E0,-9.942493229E0,1.093246098E1
9.221744042E0,1.636604232E0,-3.659851799E0,-1.043931126E1,1.118267447E1
9.231797042E0,5.674561992E-1,-3.193637508E0,-1.082896387E1,1.130432596E1
9.241850042E0,-3.076155835E-1,-2.903236712E0,-1.134757915E1,1.171712266E1
9.251903042E0,-8.691503075E-1,-3.217631849E0,-1.126894813E1,1.175150071E1
9.261956042E0,-1.187513804E0,-3.283949800E0,-9.847428027E0,1.044827039E1
9.272008042E0,-1.215734660E0,-3.129032207E0,-8.744484696E0,9.366689165E0
9.282061042E0,-9.677888887E-1,-3.027781236E0,-7.837969803E0,8.458004799E0
9.292114042E0,-7.873170626E-1,-3.095574439E0,-7.280745939E0,7.950579268E0
9.302167042E0,-1.120468168E0,-2.758300023E0,-6.948348101E0,7.559312751E0
9.312220042E0,-1.367925843E0,-2.175601156E0,-6.945748429E0,7.405935643E0
9.322273042E0,-1.535221114E0,-1.620963077E0,-7.246225732E0,7.582361936E0
9.332326042E0,-1.726457811E0,-1.198012334E0,-7.659988745E0,7.943004324E0
9.342379042E0,-1.919439170E0,-8.198666118E-1,-8.113155559E0,8.377333771E0
9.352432042E0,-1.986043488E0,-8.597914003E-1,-8.239236147E0,8.518721868E0
9.362485042E0,-1.883310248E0,-1.117001061E0,-7.837079272E0,8.137220679E0
9.372538042E0,-1.437441781E0,-1.192002566E0,-7.791704879E0,8.012351335E0
9.382591042E0,-5.069952585E-1,-1.184592535E0,-9.301306856E0,9.390133806E0
9.392644042E0,-7.847340551E-1,-1.805325640E0,-8.643824878E0,8.865140536E0
9.402697042E0,-5.268053328E-1,-1.716764296E0,-9.387398921E0,9.557618009E0
9.412750042E0,1.288657625E-1,-1.710632906E0,-1.043415753E1,1.057423825E1
9.422803042E0,7.971890630E-1,-1.573231232E0,-1.045254702E1,1.060029745E1
9.432856042E0,1.354892399E0,-1.114738043E0,-1.016636441E1,1.031665350E1
9.442909042E0,2.132170085E0,-1.032924825E0,-9.530919998E0,9.820973423E0
9.452962042E0,3.199118688E0,-6.661513522E-1,-8.829356446E0,9.414650990E0
9.463015042E0,3.751999825E0,-4.108028600E-1,-8.012116842E0,8.856651623E0
9.473068042E0,3.835649507E0,-1.030033669E0,-6.154471048E0,7.324663158E0
9.483121042E0,3.164552287E0,-2.171850459E0,-1.729647905E0,4.209870244E0
9.493174042E0,2.243125533E0,-3.109546360E0,3.431273029E0,5.145340157E0
9.503227042E0,1.448832888E0,-3.625731542E0,7.510226934E0,8.464546919E0
9.513280042E0,5.781238595E-1,-2.650241431E0,1.065625349E1,1.099607863E1
9.523333042E0,-4.072169088E-1,-1.239729586E-1,1.295210658E1,1.295909950E1
9.533386042E0,-1.146223252E0,2.067461142E0,1.587449234E1,1.604953988E1
9.543439042E0,-8.838759354E-1,3.810047473E0,2.053557106E1,2.090472141E1
9.553492042E0,-5.142289951E-2,6.004734380E0,2.371245688E1,2.446099120E1
9.563544167E0,-2.734959108E-1,6.818800700E0,2.472604599E1,2.565050083E1
9.573597167E0,-1.489224285E0,5.265784900E0,2.425147427E1,2.486122048E1
9.583650167E0,-2.123791317E0,3.524394324E0,2.280434687E1,2.317261489E1
9.593703167E0,-2.104108127E0,2.301060477E0,2.028350461E1,2.052176185E1
9.603756167E0,-1.809358318E0,1.402501744E0,1.742331101E1,1.757306334E1
9.613809167E0,-1.219445888E0,6.652726619E-1,1.508960772E1,1.515341206E1
9.623862167E0,-9.681590174E-1,3.056351316E-1,1.253307640E1,1.257413014E1
9.633915167E0,-5.241069889E-1,3.392091130E-1,9.379105815E0,9.399860469E0
9.643968167E0,3.189194208E-1,6.223165306E-1,6.463184153E0,6.500902773E0
9.654021167E0,1.023587917E0,1.356599640E0,3.626106348E0,4.004590123E0
9.664074167E0,1.445320466E0,2.047433112E0,5.886047012E-1,2.574371592E0
9.674127167E0,2.064856499E0,2.696266912E0,-1.987219509E0,3.934784492E0
9.684180167E0,2.607087810E0,2.951392041E0,-5.075325299E0,6.423904476E0
9.694233167E0,3.092561368E0,2.785864382E0,-7.473170789E0,8.554136884E0
9.704286167E0,3.636873996E0,2.374588336E0,-8.242985966E0,9.317313984E0
9.714339167E0,3.696782228E0,1.811562426E0,-9.068077796E0,9.958814798E0
9.724392167E0,3.119581352E0,1.176597418E0,-9.829615070E0,1.037966771E1
9.734445167E0,2.341782387E0,5.375300764E-1,-1.001788489E1,1.030198529E1
9.744498167E0,1.740686864E0,1.236033415E-1,-9.670321712E0,9.826514670E0
9.754551167E0,1.416151777E0,3.717897986E-1,-8.774782628E0,8.896095980E0
9.764604167E0,1.337395483E0,4.778205029E-1,-8.363394755E0,8.483119175E0
9.774657167E0,1.277984410E0,1.143012985E-1,-8.364498709E0,8.462337005E0
9.784710167E0,1.221981167E0,2.461180045E-1,-7.655193443E0,7.756016935E0
9.794763167E0,9.951806089E-1,1.586152263E-1,-7.005157894E0,7.077272099E0
9.804816167E0,8.334092201E-2,-5.391659081E-1,-7.538329822E0,7.558046182E0
9.814869167E0,-1.009494374E0,-1.137709853E0,-8.629751215E0,8.762766038E0
9.824922167E0,-1.759099307E0,-1.295199051E0,-8.932236452E0,9.195478181E0
9.834975167E0,-1.924677544E0,-1.109236982E0,-8.675778158E0,8.955663960E0
9.845028167E0,-1.077391949E0,-1.061454925E0,-9.076847450E0,9.201989981E0
9.855081167E0,1.882956564E-1,-1.611685446E0,-9.348351799E0,9.488132935E0
9.865134167E0,1.076372560E0,-1.788015689E0,-9.562127758E0,9.787229702E0
9.875187167E0,2.079504944E0,-1.420330197E0,-9.411366073E0,9.742458111E0
9.885239167E0,2.914031256E0,-1.225345728E0,-8.705461548E0,9.261647320E0
9.895292167E0,3.404689833E0,-1.083279949E0,-7.925115536E0,8.693265472E0
9.905345167E0,3.546352665E0,-7.162651332E-1,-7.362754893E0,8.203646298E0
9.915398167E0,3.459809781E0,-3.812039620E-1,-7.700618123E0,8.450746692E0
9.925451167E0,2.605600863E0,-4.959095223E-1,-7.686535689E0,8.131292210E0
9.935504167E0,1.895345864E0,-1.939847414E-1,-6.327072083E0,6.607708163E0
9.945557167E0,2.291368863E0,-2.890303548E-1,-2.491610271E0,3.397356554E0
9.955610167E0,3.648843831E0,-3.561439651E-1,3.134511048E0,4.823490368E0
9.965663167E0,5.231325504E0,5.312555755E-1,7.626781822E0,9.263735747E0
9.975716167E0,5.917408553E0,1.765326446E0,1.179262243E1,1.331157561E1
9.985769167E0,5.850952023E0,2.420932637E0,1.395955143E1,1.532852343E1
9.995822167E0,4.248212087E0,2.013429653E0,1.373480317E1,1.451709417E1
1.000587517E1,1.486678115E0,9.357581337E-1,1.419152919E1,1.429983761E1
1.001592817E1,-9.196395528E-1,-6.244088106E-1,1.621306367E1,1.625112478E1
1.002598117E1,-2.348809424E0,-1.660419503E0,1.863861268E1,1.885926248E1
1.003603417E1,-2.958215449E0,-1.843275385E0,2.006431588E1,2.036480971E1
1.004608717E1,-2.909780915E0,-2.188525988E0,2.113164090E1,2.144301094E1
1.005614017E1,-2.308237934E0,-1.636458637E0,2.054532655E1,2.073924788E1
1.006619317E1,-1.434726188E0,2.482463180E-1,1.875715445E1,1.881358309E1
1.007624617E1,-4.182343787E-1,1.969235082E0,1.700924979E1,1.712797084E1
1.008629917E1,7.137950501E-1,3.165437556E0,1.475037799E1,1.510308410E1
1.009635217E1,1.706272345E0,3.748550552E0,1.205552494E1,1.273964984E1
1.010640517E1,2.517818661E0,3.856958515E0,9.221965987E0,1.030825865E1
1.011645817E1,2.667151871E0,3.783226587E0,6.127852183E0,7.679653306E0
1.012651117E1,2.332127172E0,3.650202724E0,2.524721884E0,5.013683044E0
1.013656417E1,1.691478889E0,3.646383907E0,-1.487804142E0,4.286114511E0
1.014661717E1,8.426242675E-1,3.101288338E0,-4.946262631E0,5.898603142E0
1.015667017E1,1.441071148E-1,2.326351877E0,-7.597061010E0,7.946572589E0
1.016672317E1,-4.242521869E-1,1.696415694E0,-9.637268572E0,9.794629225E0
1.017677617E1,-8.104009929E-1,6.334046057E-1,-1.095836977E1,1.100653529E1
1.018682917E1,-1.206296230E0,-8.955874698E-1,-1.141696806E1,1.151539783E1
1.019688217E1,-2.309000265E0,-1.489864116E0,-1.113967555E1,1.147360225E1
1.020693517E1,-2.471391769E0,-1.272784043E0,-1.141086240E1,1.174459608E1
1.021698817E1,-1.986783160E0,-1.732705999E0,-1.083073791E1,1.114694851E1
1.022704017E1,-1.366312596E0,-2.188942602E0,-9.746185827E0,1.008198482E1
1.023709317E1,-9.171243730E-1,-1.894759973E0,-9.056592695E0,9.298016117E0
1.024714617E1,-5.876606682E-1,-1.556493285E0,-8.641736253E0,8.800433050E0
1.025719917E1,-4.142141256E-1,-1.767705532E0,-8.539691815E0,8.730560834E0
1.026725217E1,-4.801648709E-1,-2.227401201E0,-9.157250174E0,9.436477370E0
1.027730517E1,-8.127916270E-1,-2.398091658E0,-9.954974695E0,1.027195186E1
1.028735817E1,-1.421743323E0,-2.462788468E0,-1.068104100E1,1.105311350E1
1.029741117E1,-1.910107452E0,-2.708807728E0,-1.082636653E1,1.132238323E1
1.030746417E1,-2.018049538E0,-3.057113208E0,-1.065280012E1,1.126501733E1
1.031751717E1,-2.066271526E0,-3.402698856E0,-1.009415831E1,1.085080041E1
1.032757017E1,-1.518319591E0,-3.698909445E0,-9.664953969E0,1.045937669E1
1.033762317E1,-3.506838351E-1,-4.278430789E0,-9.400740513E0,1.033449909E1
1.034767617E1,1.128651492E-1,-4.490747575E0,-8.915845537E0,9.983579216E0
1.035772917E1,6.532750525E-1,-3.879177350E0,-8.977251826E0,9.801318052E0
1.036778217E1,1.573988154E0,-3.683611375E0,-9.042400918E0,9.889966928E0
1.037783517E1,2.168739156E0,-3.892196175E0,-8.296598502E0,9.417333343E0
1.038788817E1,1.229054909E0,-3.919742116E0,-7.684797311E0,8.713843236E0
1.039794117E1,-5.687133506E-1,-4.357391297E0,-7.106562647E0,8.355448908E0
1.040799417E1,-1.471000999E0,-4.627701060E0,-5.294405851E0,7.184023549E0
1.041804717E1,-1.479387660E0,-4.311827162E0,-9.028796786E-1,4.647110181E0
1.042810017E1,-6.837178499E-1,-3.568005490E0,4.192812057E0,5.547774889E0
1.043815317E1,1.208247592E0,-1.461126367E0,9.223192733E0,9.416052076E0
1.044820617E1,3.182882724E0,2.712449959E0,1.290170592E1,1.356252716E1
1.045825917E1,3.787831270E0,6.690406369E0,1.416414902E1,1.611621297E1
1.046831217E1,3.696732819E0,7.594029229E0,1.673262386E1,1.874342057E1
1.047836517E1,4.300133315E0,5.648947095E0,2.209109415E1,2.320383999E1
1.048841817E1,5.113667246E0,4.881863445E0,2.584642630E1,2.679589401E1
1.049847117E1,4.491871995E0,4.050998951E0,2.636955329E1,2.705440532E1
1.050852417E1,3.042980780E0,2.418255489E0,2.570827530E1,2.600044443E1
1.051857717E1,1.583462544E0,1.489271793E0,2.478911873E1,2.488424585E1
1.052863017E1,7.116979462E-1,9.782144742E-1,2.253676892E1,2.256921290E1
1.053868317E1,3.897981995E-1,-3.009291463E-2,1.940763497E1,1.941157241E1
1.054873617E1,-8.778190970E-2,-4.578196632E-1,1.585716704E1,1.586401749E1
1.055878917E1,-8.824193940E-1,-3.564301132E-1,1.222652793E1,1.226351057E1
1.056884138E1,-1.741305791E0,-3.197506025E-2,8.546773378E0,8.722413854E0
1.057889438E1,-2.123968780E0,5.372547457E-1,5.390289663E0,5.818514303E0
1.058894738E1,-2.116532437E0,1.089758153E0,2.434511041E0,3.405014890E0
1.059899938E1,-2.141864768E0,1.463459260E0,-1.897205132E-1,2.601017409E0
1.060905238E1,-2.204351184E0,1.954950188E0,-2.168206621E0,3.658157231E0
1.061910538E1,-2.266665108E0,2.444392543E0,-3.948420078E0,5.167479727E0
1.062915838E1,-2.365086757E0,2.497229153E0,-5.389897900E0,6.393808582E0
1.063921138E1,-2.184250503E0,2.460860349E0,-6.354609545E0,7.155965790E0
1.064926438E1,-1.822878689E0,2.593178161E0,-7.337368037E0,7.992773573E0
1.065931738E1,-1.818483776E0,2.766439932E0,-8.756137027E0,9.361090149E0
1.066937038E1,-1.716770144E0,2.462565689E0,-9.699677074E0,1.015358384E1
1.067942337E1,-1.122988172E0,1.500222751E0,-9.661276655E0,9.841343269E0
1.068947638E1,-2.515999885E-1,4.830750301E-3,-8.689555367E0,8.693198397E0
1.069952938E1,1.050598472E-1,-1.332400061E0,-7.400648943E0,7.520367828E0
1.070958238E1,3.871084803E-1,-1.678491785E0,-6.963519872E0,7.173408998E0
1.071963538E1,8.359166341E-1,-1.569131749E0,-6.918469414E0,7.143259067E0
1.072968838E1,1.013169129E0,-1.644600446E0,-6.691467054E0,6.964693363E0
1.073974138E1,1.102771277E0,-1.374345062E0,-7.247402192E0,7.458536543E0
1.074979438E1,1.160059226E0,-1.208652658E0,-7.990083949E0,8.163823869E0
1.075984738E1,9.229813828E-1,-1.157629928E0,-8.553145089E0,8.680339428E0
1.076990038E1,6.604523635E-1,-1.345760071E0,-9.041979918E0,9.165406065E0
1.077995338E1,1.575226741E-1,-1.956135126E0,-9.693660874E0,9.890315423E0
1.079000637E1,-1.322765896E-1,-2.871941829E0,-1.092397177E1,1.129595972E1
1.080005938E1,7.134187818E-3,-4.106951542E0,-1.208090302E1,1.275991065E1
1.081011238E1,5.626778546E-1,-4.916829502E0,-1.260446388E1,1.354120853E1
1.082016538E1,1.567954558E0,-5.407110933E0,-1.279953635E1,1.398297039E1
1.083021838E1,2.549690957E0,-5.909437044E0,-1.253602573E1,1.409163977E1
1.084027138E1,2.886961864E0,-5.443486462E0,-1.144971714E1,1.300238887E1
1.085032438E1,2.716940036E0,-4.400282963E0,-1.146137532E1,1.257407562E1
1.086037738E1,2.296297773E0,-3.981027076E0,-1.196143388E1,1.281395570E1
1.087043038E1,2.260791433E0,-3.328164983E0,-1.187648086E1,1.253948394E1
1.088048338E1,2.205489637E0,-2.244783219E0,-1.043400784E1,1.089824554E1
1.089053637E1,1.199853330E0,-1.710868987E0,-7.982732829E0,8.251711588E0
1.090058937E1,5.121965030E-1,-8.497162092E-1,-4.303812091E0,4.416691228E0
1.091064238E1,3.815775990E-2,6.055676930E-1,8.747194880E-1,1.064566780E0
1.092069538E1,-3.826771680E-1,1.627085696E0,5.457550185E0,5.707775722E0
1.093074838E1,-5.112246957E-1,1.551537916E0,9.108216008E0,9.253551720E0
1.094080138E1,-9.604928792E-1,1.757360930E0,1.301596519E1,1.316913869E1
1.095085438E1,-1.611800197E0,3.389806038E0,1.795100351E1,1.833922604E1
1.096090738E1,-3.163567616E0,4.003164049E0,2.298723140E1,2.354668320E1
1.097096038E1,-3.876733506E0,3.448826663E0,2.660591646E1,2.710716250E1
1.098101338E1,-3.896995278E0,3.681555786E0,2.916536905E1,2.965399092E1
1.099106538E1,-4.185645125E0,2.978822499E0,2.961358854E1,3.005590848E1
1.100111838E1,-3.076691733E0,2.603676545E0,2.774104345E1,2.803231449E1
1.101117137E1,-1.294172865E0,2.786739126E0,2.573296926E1,2.591575786E1
1.102122437E1,-1.341058910E-1,2.614614639E0,2.313022389E1,2.327791767E1
1.103127738E1,5.025234541E-1,2.178045731E0,1.936311427E1,1.949170612E1
1.104133038E1,6.743403777E-1,1.847896732E0,1.527124563E1,1.539741537E1
1.105138338E1,6.919861051E-1,1.855035890E0,1.136939394E1,1.154049919E1
1.106143638E1,9.344122508E-1,2.073774673E0,7.454367898E0,7.793668482E0
1.107148938E1,1.347101130E0,1.955347798E0,3.352299950E0,4.108038634E0
1.108154238E1,1.613498229E0,1.303447718E0,-7.995295572E-1,2.222970985E0
1.109159538E1,1.915446837E0,4.518132571E-1,-4.702571148E0,5.097768846E0
1.110164838E1,1.825367849E0,-1.478267480E-1,-7.917758569E0,8.126790344E0
1.111170138E1,1.701204856E0,-4.451426804E-1,-1.085436300E1,1.099588314E1
1.112175437E1,1.885857587E0,-6.214656146E-1,-1.292399200E1,1.307563565E1
1.113180738E1,2.377867163E0,-1.010336738E0,-1.382861356E1,1.406789201E1
1.114186038E1,2.802384521E0,-1.712112690E0,-1.365817892E1,1.404743892E1
1.115191338E1,4.750927914E0,-8.116575596E-1,-1.281770482E1,1.369392788E1
1.116196638E1,3.422218031E0,-2.797693007E0,-1.061647137E1,1.149991856E1
1.117201938E1,3.229401710E0,-2.813516742E0,-1.355690515E1,1.421740444E1
1.118207238E1,2.982898593E0,-1.498933148E0,-1.104449107E1,1.153799235E1
1.119212538E1,2.405013008E0,-2.485300833E0,-1.109834509E1,1.162471813E1
1.120217838E1,2.355483144E0,-1.967823564E0,-1.259981418E1,1.296826695E1
1.121223138E1,1.246987150E0,-1.809493097E0,-1.136839875E1,1.157884849E1
1.122228438E1,9.100639332E-1,-1.475381440E0,-1.019657112E1,1.034287336E1
1.123233737E1,1.375740500E0,-1.421640997E0,-8.427041697E0,8.656139833E0
1.124239038E1,1.726187231E0,-1.315195798E0,-7.687169527E0,7.987617772E0
1.125244338E1,1.945523599E0,-5.925467112E-1,-7.278289524E0,7.557094155E0
1.126249638E1,2.169961516E0,4.804964080E-2,-6.781993062E0,7.120847677E0
1.127254938E1,1.978928742E0,4.953910936E-2,-6.560432121E0,6.852582192E0
1.128260238E1,1.223094842E0,2.532112253E-1,-6.580509705E0,6.697998574E0
1.129265538E1,6.768035173E-1,5.647401676E-1,-6.416090094E0,6.476357506E0
1.130270838E1,3.683769250E-1,3.608191429E-1,-5.853256996E0,5.875926265E0
1.131276138E1,3.334561837E-1,6.866546139E-2,-5.738542811E0,5.748633017E0
1.132281438E1,3.189625441E-1,-8.358397432E-2,-5.802744654E0,5.812105376E0
1.133286738E1,4.582212938E-1,-1.316685522E-1,-6.121873990E0,6.140410777E0
1.134292037E1,1.038342562E0,1.771121621E-3,-6.038589174E0,6.127211243E0
1.135297338E1,1.732471087E0,3.060643172E-1,-5.751064623E0,6.014139650E0
1.136302638E1,2.250381635E0,3.400435837E-1,-4.410837772E0,4.963399741E0
1.137307938E1,2.598548829E0,6.363063595E-1,-1.145318688E0,2.910171249E0
1.138313138E1,3.162049387E0,4.253992644E-1,3.934753965E0,5.065748674E0
1.139318438E1,3.237393099E0,-2.303686023E-2,8.606539523E0,9.195312248E0
1.140323738E1,2.506215154E0,9.369771320E-1,1.136112364E1,1.167193947E1
1.141329038E1,2.005959835E0,3.163947685E0,1.256464902E1,1.311124879E1
1.142334338E1,1.992701274E0,4.301017706E0,1.303874594E1,1.387366237E1
1.143339638E1,2.695522854E0,3.750177248E0,1.658532665E1,1.721635075E1
1.144344938E1,3.729291286E0,2.553021238E0,2.189745307E1,2.235897990E1
1.145350238E1,3.710586920E0,1.325219387E0,2.485504024E1,2.516540655E1
1.146355537E1,2.828853989E0,1.689403859E-1,2.579777279E1,2.595295815E1
1.147360838E1,1.829694642E0,-4.136617099E-1,2.566336635E1,2.573183380E1
1.148366138E1,1.326276272E0,6.120382950E-1,2.358815443E1,2.363333724E1
1.149371438E1,1.170680109E0,1.669753121E0,1.912213531E1,1.923056490E1
1.150376738E1,1.407831481E0,2.141400645E0,1.391344731E1,1.414749455E1
1.151382038E1,2.145207767E0,2.476011654E0,9.716577281E0,1.025399552E1
1.152387338E1,3.174482321E0,2.261793792E0,5.708102791E0,6.911981383E0
1.153392638E1,3.352484430E0,1.707281574E0,1.877604681E0,4.204683289E0
1.154397938E1,2.832532472E0,9.637285821E-1,-1.252273618E0,3.243486119E0
1.155403238E1,2.309687020E0,1.509600516E-1,-3.570746664E0,4.255311365E0
1.156408537E1,1.405788464E0,-2.517714581E-1,-5.856969393E0,6.028575333E0
1.157413837E1,-1.769557491E-1,-3.410916241E-1,-7.778232309E0,7.787718195E0
1.158419138E1,-1.743397048E0,-2.958553711E-1,-9.354163347E0,9.519839053E0
1.159424438E1,-2.876304729E0,-7.514022946E-2,-1.077162841E1,1.114929386E1
1.160429738E1,-3.714101681E0,-7.187602133E-2,-1.184814174E1,1.241685065E1
1.161435038E1,-4.175591422E0,-5.903180815E-1,-1.239421789E1,1.309200811E1
1.162440338E1,-3.898194834E0,-1.388960470E0,-1.157026919E1,1.228805368E1
1.163445638E1,-3.240390967E0,-2.196432885E0,-1.042511071E1,1.113586029E1
1.164450938E1,-2.949080929E0,-2.694663021E0,-1.027680428E1,1.102592369E1
1.165456238E1,-2.750976678E0,-2.821257579E0,-1.036952007E1,1.109298487E1
1.166461538E1,-2.916384176E0,-2.679110889E0,-1.028769413E1,1.102359208E1
1.167466837E1,-3.332283762E0,-2.209488109E0,-1.033311764E1,1.107967838E1
1.168472138E1,-3.680726067E0,-1.756799159E0,-1.040563715E1,1.117637562E1
1.169477438E1,-3.815461118E0,-1.388852881E0,-1.024558131E1,1.102082539E1
1.170482738E1,-3.599901174E0,-1.012195276E0,-9.475194864E0,1.018641966E1
1.171488038E1,-2.884914169E0,-8.086868817E-1,-8.786372395E0,9.283159165E0
1.172493338E1,-2.127338676E0,-7.476422426E-1,-8.524539925E0,8.817727581E0
1.173498638E1,-1.644718560E0,-6.710628672E-1,-7.982523499E0,8.177781235E0
1.174503938E1,-1.379894947E0,-7.734183772E-1,-7.162502375E0,7.335102339E0
1.175509238E1,-1.304526384E0,-7.190522086E-1,-6.696595647E0,6.860263728E0
1.176514538E1,-1.524891862E0,-7.094923764E-1,-6.511168159E0,6.724878097E0
1.177519838E1,-1.528898666E0,-6.464274513E-1,-6.502473350E0,6.711002849E0
1.178525038E1,-1.283125282E0,-6.566219987E-1,-6.445674666E0,6.604868268E0
1.179530337E1,-6.487029684E-1,-5.374902423E-1,-6.375794592E0,6.431210460E0
1.180535637E1,2.619567230E-1,-6.469099197E-1,-6.120532054E0,6.160196944E0
1.181540938E1,1.089062626E0,-5.163030025E-1,-5.591166664E0,5.719595340E0
1.182546238E1,1.629514045E0,-8.803765230E-2,-5.132592344E0,5.385774858E0
1.183551538E1,1.787312561E0,1.616188679E-1,-4.406055919E0,4.757513595E0
1.184556838E1,1.421743469E0,-5.020949994E-1,-2.161262468E0,2.635243695E0
1.185562138E1,1.270997572E0,-1.120147448E0,1.673096559E0,2.381053806E0
1.186567438E1,1.699989658E0,-1.377993725E0,7.223085376E0,7.547303750E0
1.187572738E1,3.267880482E0,-4.566609643E-1,1.214453125E1,1.258480121E1
1.188578038E1,4.261546369E0,1.428795650E0,1.460595294E1,1.528188783E1
1.189583338E1,4.452384578E0,2.773063073E0,1.559746179E1,1.645583244E1
1.190588637E1,3.758053447E0,2.145724515E0,1.866746752E1,1.916250096E1
1.191593938E1,3.905832759E0,1.912962209E0,2.246315014E1,2.288029869E1
1.192599238E1,4.582428408E0,1.410056493E0,2.571677949E1,2.615988641E1
1.193604538E1,4.295637683E0,7.436578037E-1,2.681592506E1,2.716798422E1
1.194609838E1,3.574652604E0,1.755874275E0,2.529642082E1,2.560800934E1
1.195615138E1,3.035677316E0,3.041561076E0,2.234122400E1,2.275075208E1
1.196620438E1,2.350713132E0,3.363534790E0,1.882232401E1,1.926445171E1
1.197625738E1,1.997730756E0,3.615334023E0,1.444577782E1,1.502471514E1
1.198631038E1,2.122765861E0,3.355119770E0,1.054325838E1,1.126602241E1
1.199636338E1,1.739250495E0,3.308832918E0,6.710600898E0,7.681505840E0
1.200641638E1,7.846755829E-1,3.041345606E0,2.157929555E0,3.810795039E0
1.201646937E1,-1.840323418E-1,2.583294320E0,-2.698384774E0,3.740128051E0
1.202652238E1,-1.036302322E0,2.546670285E0,-6.808147658E0,7.342365189E0
1.203657538E1,-1.461907116E0,2.352510712E0,-9.307266338E0,9.710648061E0
1.204662838E1,-1.355124095E0,2.118381619E0,-1.011639410E1,1.042426648E1
1.205668138E1,-9.455359939E-1,2.301618886E0,-1.065966826E1,1.094623293E1
1.206673438E1,-5.329655206E-1,2.057350429E0,-9.914434780E0,1.013966272E1
1.207678738E1,-2.332571268E-1,1.446337589E0,-9.124924427E0,9.241782680E0
1.208684038E1,-9.696876258E-3,1.144171464E0,-9.201952137E0,9.272817560E0
1.209689338E1,8.638968766E-3,7.738634965E-1,-8.182458513E0,8.218976011E0
1.210694638E1,-1.839820558E-1,5.916673996E-1,-6.909877515E0,6.937602395E0
1.211699937E1,-1.037137012E0,9.764254455E-2,-6.953936870E0,7.031530789E0
1.212705237E1,-2.423508335E0,-2.856151057E-1,-6.733151270E0,7.161724280E0
1.213710538E1,-3.948424171E0,-5.518083923E-1,-6.419691979E0,7.556916768E0
1.214715838E1,-4.413265828E0,-9.974433352E-1,-6.692815422E0,8.078711949E0
1.215721138E1,-4.226823264E0,-1.257770732E0,-6.691844199E0,8.014287299E0
1.216726438E1,-3.639421043E0,-1.545861439E0,-6.589173524E0,7.684548188E0
1.217731738E1,-2.645083018E0,-1.734649029E0,-6.898965442E0,7.589545150E0
1.218737038E1,-1.768385417E0,-1.844513825E0,-7.130217558E0,7.574260404E0
1.219742338E1,-1.162405714E0,-2.003087098E0,-7.022538743E0,7.394565259E0
1.220747638E1,-5.332087648E-1,-2.272930692E0,-6.716475595E0,7.110665928E0
1.221752938E1,-3.462998852E-1,-2.878076143E0,-6.463226838E0,7.083540573E0
1.222758237E1,-7.076338390E-1,-3.423571662E0,-6.477805116E0,7.360947473E0
1.223763538E1,-1.100241626E0,-3.845672804E0,-6.772483735E0,7.865511229E0
1.224768838E1,-1.237517292E0,-4.283454132E0,-7.585274193E0,8.798625627E0
1.225774138E1,-9.802868736E-1,-4.886084842E0,-8.768727837E0,1.008589983E1
1.226779438E1,-5.291160062E-1,-5.084106063E0,-9.284086221E0,1.059822415E1
1.227784738E1,4.043475339E-1,-4.937915146E0,-9.133482996E0,1.039071771E1
1.228790038E1,1.658035593E0,-4.348928622E0,-8.688508131E0,9.856593515E0
1.229795338E1,2.640355251E0,-3.564080254E0,-7.430182060E0,8.653424140E0
1.230800538E1,3.361512823E0,-2.920232813E0,-5.228267410E0,6.867481945E0
1.231805938E1,3.640492253E0,-3.275373104E0,-2.574852403E0,5.532731487E0
1.232811138E1,3.706771612E0,-3.470784420E0,8.539191878E-1,5.149337651E0
1.233816438E1,2.877664499E0,-2.688414979E0,4.895645624E0,6.282982902E0
1.234821737E1,1.479840527E0,1.957049923E-1,7.648200173E0,7.792508859E0
1.235827037E1,1.177204140E0,3.616101762E0,1.016362089E1,1.085178286E1
1.236832338E1,1.994134134E0,5.830870346E0,1.301534188E1,1.440051194E1
1.237837638E1,3.065740483E0,6.522883641E0,1.693395285E1,1.840395433E1
1.238842938E1,4.167450052E0,6.109578465E0,2.104413615E1,2.230583456E1
1.239848238E1,4.259527034E0,5.114587598E0,2.474612532E1,2.562563746E1
1.240853538E1,3.047633995E0,4.310272972E0,2.596657489E1,2.649772702E1
1.241858838E1,1.868535649E0,5.248069006E0,2.447346498E1,2.509948489E1
1.242864138E1,1.011738169E0,5.558696491E0,2.250423969E1,2.320266202E1
1.243869438E1,1.175918922E-1,5.093773264E0,1.992840086E1,2.056943157E1
1.244874738E1,-8.051615953E-1,4.531672238E0,1.687461063E1,1.749104978E1
1.245880037E1,-1.430569257E0,3.657033149E0,1.365835668E1,1.421165462E1
1.246885338E1,-1.513241284E0,2.970811813E0,1.028547219E1,1.081233370E1
1.247890638E1,-1.154804626E0,2.767810519E0,6.839642515E0,7.468270116E0
1.248895938E1,-1.077152140E0,2.450042854E0,4.192543085E0,4.973970671E0
1.249901238E1,-1.210212257E0,2.447742705E0,1.071045016E0,2.933120435E0
1.250906538E1,-1.448156219E0,2.588520854E0,-2.177652213E0,3.679642076E0
1.251911838E1,-9.271412382E-1,2.909108778E0,-4.647685674E0,5.560889037E0
1.252917138E1,-1.349584150E-1,3.385616508E0,-6.515408560E0,7.343783876E0
1.253922438E1,2.004416755E-1,3.900592777E0,-8.124036058E0,9.014142375E0
1.254927738E1,2.213638902E-2,4.135931513E0,-9.455809005E0,1.032079180E1
1.255933038E1,-2.983942321E-1,3.147921637E0,-9.956666880E0,1.044670594E1
1.256938354E1,-1.980770615E-1,1.506098764E0,-9.953475469E0,1.006872593E1
1.257943654E1,-4.941452712E-2,9.946132097E-2,-9.943966727E0,9.944586901E0
1.258948954E1,-2.223737043E-1,-5.432719691E-1,-1.011575325E1,1.013277150E1
1.259954254E1,-2.130430099E-1,-1.068539338E0,-1.048113289E1,1.053761407E1
1.260959554E1,-1.290664682E-1,-2.009227698E0,-1.051407025E1,1.070510754E1
1.261964854E1,-4.618712720E-1,-2.607799709E0,-1.056398910E1,1.089090493E1
1.262970154E1,-1.112180471E0,-2.557944886E0,-1.030639586E1,1.067716363E1
1.263975454E1,-1.760888994E0,-2.242938276E0,-9.842047420E0,1.024682388E1
1.264980754E1,-2.016365248E0,-1.650598666E0,-9.466890648E0,9.818972620E0
1.265986054E1,-2.033012271E0,-9.617721038E-1,-9.561529003E0,9.822473280E0
1.266991354E1,-1.816764109E0,-2.046786593E-1,-9.748081495E0,9.918045070E0
1.267996654E1,-1.377225693E0,3.712519278E-1,-9.451917683E0,9.558939611E0
1.269001954E1,-4.759925902E-1,9.933650485E-1,-9.195870448E0,9.261607656E0
1.270007254E1,4.669226816E-1,1.175227927E0,-8.623943760E0,8.716167934E0
1.271012554E1,6.771987891E-1,9.890407401E-1,-8.145033994E0,8.232762510E0
1.272017854E1,5.327971208E-1,1.332579278E0,-8.386704680E0,8.508610679E0
1.273023154E1,1.755842847E-1,1.267515555E0,-8.653399694E0,8.747499745E0
1.274028454E1,-3.022949097E-1,1.099793875E0,-8.896910498E0,8.969723808E0
1.275033754E1,-8.640772632E-1,9.663028188E-1,-9.227864074E0,9.318468008E0
1.276039054E1,-1.243229437E0,8.101013231E-1,-9.561179339E0,9.675641268E0
1.277044354E1,-7.806298944E-1,1.381185135E0,-9.085667975E0,9.223145774E0
1.278049654E1,-4.717445880E-2,1.827521232E0,-8.006946734E0,8.212993077E0
1.279054954E1,9.687757525E-1,1.831166679E0,-6.148754809E0,6.488365246E0
1.280060254E1,2.188659012E0,5.855093679E-1,-2.520085042E0,3.388787115E0
1.281065554E1,2.322163809E0,-2.252653425E0,2.605119345E0,4.153737956E0
1.282070854E1,1.913907704E0,-3.428131905E0,7.803577650E0,8.735614186E0
1.283076154E1,1.913350172E0,-1.593972037E0,1.048148021E1,1.077325778E1
1.284081454E1,2.106567028E0,3.582417707E0,1.075831079E1,1.153310853E1
1.285086754E1,2.309899274E0,6.766509050E0,1.325888777E1,1.506384361E1
1.286092054E1,3.518202707E0,5.556792637E0,1.960846461E1,2.068205936E1
1.287097354E1,5.867085661E0,5.438506388E0,2.396204645E1,2.526221914E1
1.288102654E1,6.108514856E0,3.955813297E0,2.564491955E1,2.665753761E1
1.289107954E1,5.045404512E0,2.485275983E0,2.593101446E1,2.653394457E1
1.290113154E1,3.879287570E0,2.467677033E0,2.538534528E1,2.579833438E1
1.291118454E1,2.959278765E0,2.376260933E0,2.364757617E1,2.395019427E1
1.292123754E1,2.282781057E0,1.984657844E0,2.061913947E1,2.083983849E1
1.293129054E1,1.448245389E0,2.237027033E0,1.679007860E1,1.700024835E1
1.294134354E1,5.322846124E-1,2.300767677E0,1.299013219E1,1.320304485E1
1.295139654E1,-9.386506051E-2,1.757328916E0,9.979635912E0,1.013361478E1
1.296144954E1,1.926637092E-1,1.159528738E0,7.111356195E0,7.207843861E0
1.297150254E1,1.805757311E0,1.815804216E-1,4.758764645E0,5.093090600E0
1.298155554E1,3.162238837E0,-2.334843277E-1,2.091909227E0,3.798730526E0
1.299160854E1,3.412540305E0,-1.843870120E-2,-1.008999626E0,3.558630574E0
1.300166154E1,3.128262421E0,5.956075459E-1,-3.810734521E0,4.966132470E0
1.301171454E1,2.209703726E0,1.254779296E0,-6.525599087E0,7.002906903E0
1.302176754E1,1.058253647E0,1.555950371E0,-9.012311146E0,9.206662508E0
1.303182054E1,8.135698915E-2,1.588265739E0,-1.105110193E1,1.116494787E1
1.304187354E1,-5.935903296E-1,7.973428448E-1,-1.222038835E1,1.226075025E1
1.305192654E1,-6.849788019E-1,-9.165219636E-1,-1.092480558E1,1.098456123E1
1.306197954E1,-6.742637792E-1,-2.763176601E0,-9.692601358E0,1.010130178E1
1.307203254E1,-9.288611966E-1,-3.804429469E0,-9.918781600E0,1.066389681E1
1.308208554E1,-1.492919579E0,-4.129135879E0,-1.001556121E1,1.093572303E1
1.309213854E1,-2.136751524E0,-4.186630381E0,-1.006599344E1,1.110935664E1
1.310219154E1,-3.236725347E0,-3.739195884E0,-1.001115708E1,1.116607554E1
1.311224454E1,-4.321750764E0,-2.845291974E0,-1.021486940E1,1.145062325E1
1.312229754E1,-4.990019685E0,-2.066349878E0,-1.028934071E1,1.162069836E1
1.313235054E1,-5.269314280E0,-1.502293835E0,-1.023805712E1,1.161207877E1
1.314240354E1,-5.190494982E0,-1.107126795E0,-9.868507240E0,1.120510611E1
1.315245654E1,-4.641235610E0,-6.036039057E-1,-9.229857389E0,1.034870393E1
1.316250954E1,-4.146909952E0,-3.686166608E-1,-8.896899973E0,9.822808637E0
1.317256254E1,-3.460020573E0,-3.454789361E-1,-8.715079048E0,9.383160495E0
1.318261554E1,-2.632119448E0,-1.112646932E-1,-8.686002014E0,9.076731990E0
1.319266854E1,-1.936692841E0,-1.338384540E-1,-8.664920463E0,8.879726264E0
1.320272154E1,-1.742564112E0,-8.647578791E-2,-8.940135455E0,9.108788597E0
1.321277454E1,-1.940347351E0,4.483050739E-1,-9.597033296E0,9.801478122E0
1.322282754E1,-2.089747219E0,6.547649230E-1,-9.877561069E0,1.011740941E1
1.323288054E1,-1.952044706E0,5.375042025E-1,-9.621184051E0,9.831915980E0
1.324293354E1,-1.563138792E0,3.429646334E-1,-9.190267646E0,9.328560823E0
1.325298654E1,-1.316280164E0,4.055504523E-2,-8.561036491E0,8.661731004E0
1.326303954E1,-1.135393917E0,-5.059255104E-1,-7.529554905E0,7.631466244E0
1.327309254E1,-9.361319169E-1,-1.858786587E0,-5.136502962E0,5.542119921E0
1.328314554E1,-2.729100198E-1,-2.745556309E0,-1.724763726E0,3.253823787E0
1.329319854E1,6.853845987E-1,-2.835266630E0,1.930678688E0,3.498000730E0
1.330325154E1,1.384406074E0,-3.131745899E0,5.505170494E0,6.483156231E0
1.331330454E1,2.253573630E0,-2.308054478E0,9.063776000E0,9.620693579E0
1.332335754E1,2.690438992E0,-6.149566403E-1,1.231712235E1,1.262252497E1
1.333341054E1,2.878961119E0,7.675194137E-2,1.514063637E1,1.541211139E1
1.334346354E1,3.650456785E0,4.401341017E-1,1.801752611E1,1.838887707E1
1.335351654E1,5.160519816E0,4.051281372E-1,2.111774792E1,2.174291541E1
1.336356954E1,6.417494595E0,-5.591717179E-1,2.485377490E1,2.567502749E1
1.337362254E1,6.543572259E0,-1.736230262E0,2.676836848E1,2.761120035E1
1.338367554E1,5.990184168E0,-8.169065320E-1,2.560973803E1,2.631365281E1
1.339372854E1,5.619328609E0,1.212138695E0,2.294781649E1,2.365688939E1
1.340378154E1,5.920543245E0,2.226049617E0,2.020216750E1,2.116921588E1
1.341383454E1,6.136635286E0,2.489251505E0,1.763706650E1,1.883934129E1
1.342388754E1,5.858430612E0,2.286622386E0,1.481110718E1,1.609095233E1
1.343393954E1,5.147514439E0,1.466580650E0,1.155087982E1,1.273069473E1
1.344399254E1,4.141787207E0,7.585512467E-1,8.170016223E0,9.191244004E0
1.345404554E1,2.988477421E0,3.718262706E-1,4.769626433E0,5.640796786E0
1.346409854E1,1.882261403E0,5.114633718E-1,8.686664504E-1,2.135201202E0
1.347415154E1,6.991340339E-1,1.170287468E0,-2.937850474E0,3.238722984E0
1.348420454E1,-7.256821471E-1,1.803676871E0,-6.588484722E0,6.869351918E0
1.349425754E1,-1.971031785E0,2.087268877E0,-9.614724632E0,1.003417099E1
1.350431054E1,-2.997090955E0,1.892400914E0,-1.178647350E1,1.230791180E1
1.351436354E1,-3.629323194E0,1.471672113E0,-1.340160427E1,1.396212028E1
1.352441654E1,-3.965920209E0,7.627113944E-1,-1.394982634E1,1.452266872E1
1.353446954E1,-3.565674790E0,5.111146219E-2,-1.333024368E1,1.379898712E1
1.354452254E1,-2.728994948E0,-8.152413180E-1,-1.212511148E1,1.245513389E1
1.355457554E1,-1.891623673E0,-1.496596016E0,-1.085111078E1,1.111596352E1
1.356462854E1,-1.418123458E0,-1.597489283E0,-9.694109355E0,9.926671262E0
1.357468538E1,-1.420299207E0,-1.312249971E0,-8.952285385E0,9.158747918E0
1.358473838E1,-1.674659812E0,-9.356975419E-1,-8.518155935E0,8.731494483E0
1.359479138E1,-2.171011823E0,-3.188059483E-1,-8.404588974E0,8.686313682E0
1.360484438E1,-2.674288983E0,2.598909383E-1,-8.508157196E0,8.922337347E0
1.361489737E1,-2.914745201E0,4.724932874E-1,-8.733577300E0,9.219238686E0
1.362495038E1,-2.843095760E0,3.622961862E-1,-8.764726587E0,9.221436123E0
1.363500338E1,-2.489406163E0,2.946983167E-1,-8.435924787E0,8.800500960E0
1.364505638E1,-2.014597050E0,1.823083634E-1,-7.973338108E0,8.225932056E0
1.365510938E1,-1.503732250E0,-1.444821041E-1,-7.519564353E0,7.669806635E0
1.366516238E1,-1.031164082E0,-3.982333928E-1,-7.333534017E0,7.416374477E0
1.367521538E1,-8.000882587E-1,-2.046493319E-1,-7.507198661E0,7.552486631E0
1.368526838E1,-1.235238632E0,-4.077968795E-2,-7.492170732E0,7.593424770E0
1.369532138E1,-1.417803031E0,1.408955316E-1,-8.194483897E0,8.317426484E0
1.370537438E1,-1.266141167E0,-1.542854362E-1,-9.034262179E0,9.123859412E0
1.371542738E1,-1.163972476E0,-8.566096379E-1,-9.355715783E0,9.466679978E0
1.372548037E1,-7.424689186E-1,-1.424273706E0,-9.060173530E0,9.201443369E0
1.373553338E1,2.125541827E-1,-2.430079875E0,-7.585017500E0,7.967619340E0
1.374558638E1,8.222766879E-1,-3.861730720E0,-4.946795313E0,6.329288030E0
1.375563938E1,1.404834491E0,-4.655775297E0,-2.336405287E0,5.395238014E0
1.376569238E1,2.013035258E0,-4.674552168E0,1.075443292E-1,5.090708664E0
1.377574538E1,2.431092759E0,-3.675511812E0,2.426709686E0,5.030757297E0
1.378579838E1,3.656903633E0,-1.915027446E0,4.166348729E0,5.865043565E0
1.379585138E1,5.175936584E0,-1.307281007E-1,6.519864138E0,8.325625367E0
1.380590438E1,6.247449378E0,1.158237307E0,1.020633831E1,1.202254046E1
1.381595738E1,6.985628779E0,1.846982520E0,1.354537210E1,1.535211579E1
1.382601038E1,8.288343987E0,2.482354421E0,1.573743945E1,1.795900136E1
1.383606337E1,9.986894646E0,3.232378820E0,1.838076918E1,2.116693207E1
1.384611638E1,1.049761619E1,3.320966476E0,2.060109496E1,2.335880728E1
1.385616938E1,1.012413581E1,2.987594199E0,2.168961262E1,2.412183950E1
1.386622238E1,9.447536949E0,2.411515696E0,2.156809345E1,2.366968562E1
1.387627538E1,8.354383026E0,1.665069794E0,2.154889353E1,2.317159869E1
1.388632838E1,7.548569466E0,9.039146358E-1,2.228750680E1,2.354848025E1
1.389638138E1,6.863292164E0,7.730380889E-1,2.209621865E1,2.315049126E1
1.390643438E1,5.789270915E0,6.286572513E-1,2.004804893E1,2.087666481E1
1.391648738E1,4.558409216E0,9.510974269E-1,1.668246995E1,1.732017565E1
1.392654038E1,3.333986178E0,1.325917545E0,1.318257576E1,1.366213105E1
1.393659337E1,2.214809222E0,1.303047623E0,9.799748077E0,1.013105993E1
1.394664637E1,1.103288902E0,1.358898911E0,6.412647253E0,6.647247359E0
1.395669938E1,-1.105606154E-1,1.481296337E0,2.868981968E0,3.230715095E0
1.396675238E1,-1.335561358E0,1.473979278E0,-5.214985460E-1,2.056283002E0
1.397680538E1,-2.468252399E0,1.691291048E0,-3.613259431E0,4.691308882E0
1.398685838E1,-3.154703822E0,1.974202291E0,-6.299867912E0,7.316964302E0
1.399691138E1,-3.293326102E0,2.017644326E0,-8.243767739E0,9.103658165E0
1.400696438E1,-3.307892101E0,1.803299434E0,-9.688158059E0,1.039492403E1
1.401701738E1,-3.330606195E0,1.481925936E0,-1.075386925E1,1.135494367E1
1.402707038E1,-3.275327788E0,7.219234838E-1,-1.137463422E1,1.185880471E1
1.403712338E1,-3.071035429E0,-2.242125075E-1,-1.152072105E1,1.192512237E1
1.404717637E1,-2.588520562E0,-1.186249490E0,-1.145785530E1,1.180635738E1
1.405722938E1,-1.819144072E0,-2.029619570E0,-1.134237981E1,1.166525698E1
1.406728238E1,-9.931709209E-1,-2.688528122E0,-1.072429637E1,1.110068036E1
1.407733538E1,-3.020446488E-1,-3.240563167E0,-9.945346670E0,1.046433949E1
1.408738838E1,-2.860627466E-1,-4.050830551E0,-9.287905623E0,1.013687580E1
1.409744138E1,-1.122639385E0,-4.549448358E0,-8.840895342E0,1.000595972E1
1.410749438E1,-2.376352003E0,-4.110750479E0,-8.921636034E0,1.010647851E1
1.411754738E1,-3.433158756E0,-3.550975474E0,-8.999081236E0,1.026545026E1
1.412760038E1,-4.247594328E0,-3.196835935E0,-9.080222463E0,1.052198924E1
1.413765338E1,-4.502371840E0,-2.797764051E0,-8.977329594E0,1.042551114E1
1.414770638E1,-4.492633302E0,-2.583623226E0,-8.713693258E0,1.013840782E1
1.415775937E1,-4.713147884E0,-2.531828298E0,-8.567215244E0,1.010054922E1
1.416781238E1,-5.010106040E0,-2.497617408E0,-8.761247494E0,1.039705309E1
1.417786538E1,-4.952712110E0,-2.621890329E0,-9.051433697E0,1.064575587E1
1.418791838E1,-4.893297090E0,-3.030446396E0,-9.025289041E0,1.070438247E1
1.419797138E1,-5.251824088E0,-3.068844477E0,-8.775833958E0,1.067776776E1
1.420802438E1,-5.464307812E0,-2.639953548E0,-9.488255789E0,1.126299305E1
1.421807738E1,-4.777126071E0,-1.964970122E0,-1.080638777E1,1.197748127E1
1.422813038E1,-3.008562315E0,-1.386801532E0,-1.111650888E1,1.159963083E1
1.423818238E1,-7.146966907E-1,-7.935624737E-1,-1.094464635E1,1.099662751E1
1.424823538E1,1.263081904E0,-3.899475959E-1,-9.734372113E0,9.823718006E0
1.425828838E1,1.884868969E0,-8.325948308E-1,-8.064761664E0,8.323840813E0
1.426834138E1,1.517878127E0,-1.261766719E0,-7.443749939E0,7.701001391E0
1.427839437E1,1.072036704E0,-5.760146226E-1,-7.050778456E0,7.155035456E0
1.428844738E1,4.873455441E-1,-3.901455241E-1,-5.893179445E0,5.926152477E0
1.429850038E1,1.799220708E0,-8.978127739E-1,-2.612482744E0,3.296714883E0
1.430855338E1,4.468477577E0,-8.896295956E-1,2.996760587E0,5.453375715E0
1.431860638E1,6.939860283E0,5.320143248E-1,9.339955198E0,1.164815278E1
1.432865938E1,8.144713567E0,3.400452940E0,1.310455285E1,1.579964381E1
1.433871238E1,7.578103752E0,5.610463060E0,1.482802200E1,1.757200013E1
1.434876538E1,7.432557199E0,6.299755061E0,1.849302637E1,2.090267554E1
1.435881838E1,8.850994653E0,6.740100101E0,2.374724781E1,2.622405069E1
1.436887138E1,1.005230862E1,6.603381089E0,2.754696735E1,3.005809309E1
1.437892438E1,9.348359985E0,5.113938557E0,2.983256910E1,3.167848452E1
1.438897737E1,7.607388947E0,3.881893966E0,3.070195885E1,3.186772262E1
1.439903038E1,5.850103008E0,3.669733593E0,2.892299963E1,2.973601448E1
1.440908338E1,4.075434173E0,3.568589627E0,2.539378398E1,2.596513548E1
1.441913638E1,2.774489501E0,3.783371014E0,2.110537989E1,2.162056309E1
1.442918938E1,2.093037448E0,4.194217728E0,1.640842148E1,1.706483412E1
1.443924238E1,2.069705888E0,4.829055194E0,1.159596887E1,1.273066968E1
1.444929538E1,2.541831422E0,5.056684375E0,7.407674373E0,9.322263859E0
1.445934838E1,3.585172330E0,4.458870894E0,4.500169194E0,7.279183544E0
1.446940138E1,4.425281564E0,3.656527657E0,1.952104055E0,6.063334204E0
1.447945438E1,3.619520629E0,2.760838299E0,-1.063868728E0,4.674930413E0
1.448950737E1,1.556277961E0,2.062763196E0,-4.929097545E0,5.565338777E0
1.449956037E1,-7.518709490E-1,1.478050548E0,-8.524935781E0,8.684726445E0
1.450961338E1,-2.750120938E0,5.483301030E-1,-1.116312405E1,1.150995959E1
1.451966638E1,-4.345896841E0,-4.942858967E-1,-1.249217161E1,1.323576554E1
1.452971938E1,-5.323620880E0,-1.495986443E0,-1.299580282E1,1.412337799E1
1.453977238E1,-5.642609882E0,-2.463051301E0,-1.301695922E1,1.439954497E1
1.454982538E1,-5.395904160E0,-3.216899486E0,-1.256888708E1,1.405137525E1
1.455987838E1,-4.801997788E0,-3.776946678E0,-1.190705010E1,1.338291265E1
1.456992775E1,-4.141658276E0,-4.171710625E0,-1.135511855E1,1.278652494E1
1.457998075E1,-3.053400811E0,-4.455385077E0,-1.117979681E1,1.241618175E1
1.459003375E1,-2.402597230E0,-4.535012752E0,-1.061600359E1,1.179145226E1
1.460008675E1,-2.468987979E0,-4.047266089E0,-1.013078293E1,1.118521467E1
1.461013975E1,-2.957737439E0,-3.664182247E0,-9.733544147E0,1.081278521E1
1.462019275E1,-3.764368732E0,-3.510322123E0,-9.202613457E0,1.054423671E1
1.463024575E1,-4.586230853E0,-3.197083272E0,-8.941751041E0,1.054560413E1
1.464029875E1,-5.337361836E0,-3.176790510E0,-8.384501449E0,1.043452413E1
1.465035175E1,-5.655205370E0,-3.154143074E0,-7.503764006E0,9.911429794E0
1.466040475E1,-5.221424999E0,-3.094627482E0,-7.370844516E0,9.548264090E0
1.467045775E1,-4.468648316E0,-3.085780937E0,-7.467918820E0,9.233670628E0
1.468051075E1,-3.610240513E0,-2.784388545E0,-7.073046407E0,8.415143588E0
1.469056375E1,-2.072976528E0,-2.161006506E0,-6.746271252E0,7.381013251E0
1.470061675E1,3.441495717E-2,-1.867805770E0,-6.271934009E0,6.544237083E0
1.471066975E1,1.971805225E0,-1.932394699E0,-5.920851393E0,6.532889586E0
1.472072275E1,2.837428638E0,-1.463516124E0,-5.807172166E0,6.626924572E0
1.473077575E1,2.909962764E0,-1.061359688E0,-6.199426780E0,6.930170278E0
1.474082875E1,2.856301696E0,-1.281970457E0,-6.977798772E0,7.647979036E0
1.475088175E1,2.378143882E0,-1.783055934E0,-7.671795443E0,8.227472401E0
1.476093475E1,2.004747561E0,-2.106397312E0,-8.230235528E0,8.728842951E0
1.477098775E1,2.315235005E0,-2.451752580E0,-9.152235017E0,9.753707482E0
1.478104075E1,2.763177186E0,-3.145699110E0,-8.308192361E0,9.303581641E0
1.479109375E1,4.262678683E0,-3.236766570E0,-5.152357687E0,7.429258181E0
1.480114675E1,6.632645234E0,-3.914866415E0,-6.459635478E-1,7.728869953E0
1.481119975E1,7.585182976E0,-5.435486301E0,3.135903270E0,9.844460444E0
1.482125275E1,5.738921126E0,-5.780747429E0,5.928879036E0,1.007491256E1
1.483130575E1,2.416746908E0,-3.405900791E0,7.401017902E0,8.497993399E0
1.484135875E1,4.672489563E-1,-5.531979100E-1,9.345298383E0,9.373310588E0
1.485141175E1,3.693610114E-1,8.772412460E-1,1.349359617E1,1.352712525E1
1.486146475E1,1.274913598E0,1.959354603E0,1.885992512E1,1.900424296E1
1.487151775E1,2.254141395E0,2.446297420E0,2.340155575E1,2.363680046E1
1.488157075E1,2.483520941E0,1.921767823E0,2.635920372E1,2.654559641E1
1.489162375E1,2.315754822E0,1.182860298E0,2.781172460E1,2.793302533E1
1.490167675E1,1.726550050E0,1.259754400E0,2.755273036E1,2.763550084E1
1.491172975E1,1.489504513E0,1.501416168E0,2.651316325E1,2.659738144E1
1.492178275E1,1.256040687E0,1.695085306E0,2.434364744E1,2.443489560E1
1.493183575E1,1.146891297E0,2.586372879E0,2.107222617E1,2.126131229E1
1.494188875E1,1.297242215E0,3.377452333E0,1.743704962E1,1.780844522E1
1.495194175E1,1.516500522E0,4.012243898E0,1.414713479E1,1.478307470E1
1.496199475E1,1.829678124E0,4.454168271E0,1.043764714E1,1.149486037E1
1.497204775E1,2.121580338E0,4.782304950E0,6.951592721E0,8.700355460E0
1.498210075E1,2.764006028E0,5.063323889E0,4.575317025E0,7.362778280E0
1.499215375E1,3.868159149E0,5.248571282E0,2.637931581E0,7.033408756E0
1.500220675E1,3.821624376E0,5.237121849E0,-7.609595686E-1,6.527734492E0
1.501225975E1,2.221134301E0,4.920523188E0,-4.726695006E0,7.175418574E0
1.502231275E1,3.323462360E-1,4.188954357E0,-7.524286564E0,8.618159950E0
1.503236575E1,-1.101327161E0,3.065139389E0,-9.411075466E0,9.958731968E0
1.504241875E1,-1.786313126E0,1.658029454E0,-1.074907336E1,1.102191246E1
1.505247175E1,-1.430955465E0,-1.992525345E-1,-1.091191247E1,1.100714172E1
1.506252475E1,-4.804923150E-1,-1.615823959E0,-1.029511659E1,1.043221862E1
1.507257775E1,5.098260418E-2,-2.233890441E0,-9.762005469E0,1.001447036E1
1.508263075E1,8.106163166E-2,-1.826390819E0,-9.877703741E0,1.004546194E1
1.509268375E1,2.123648060E-1,-8.928090922E-1,-1.060639662E1,1.064602537E1
1.510273675E1,2.286433813E-1,-2.612507631E-1,-1.062431366E1,1.062998450E1
1.511278975E1,2.218448967E-1,-9.163182613E-2,-1.051101801E1,1.051375818E1
1.512284275E1,5.378122777E-3,-4.335334723E-1,-1.041847296E1,1.042749054E1
1.513289575E1,-5.218699904E-1,-9.398459952E-1,-1.019902578E1,1.025552464E1
1.514294875E1,-1.043369413E0,-1.215854820E0,-1.010069316E1,1.022697047E1
1.515300175E1,-1.574712770E0,-1.655597012E0,-1.028524298E1,1.053598334E1
1.516305475E1,-2.001868100E0,-2.501281274E0,-1.064036543E1,1.111221222E1
1.517310775E1,-2.283872440E0,-3.274228219E0,-1.061841148E1,1.134404276E1
1.518316075E1,-2.313468707E0,-3.530235985E0,-1.038506898E1,1.121001166E1
1.519321375E1,-2.181006614E0,-3.537585643E0,-1.032410825E1,1.112917397E1
1.520326675E1,-1.872224219E0,-3.445099940E0,-9.956395569E0,1.070064250E1
1.521331975E1,-1.063230724E0,-3.167925546E0,-9.782282444E0,1.033727535E1
1.522337275E1,2.055177896E-1,-3.258646851E0,-1.025775288E1,1.076487394E1
1.523342575E1,1.610385464E0,-3.482783199E0,-1.054600073E1,1.122235499E1
1.524347875E1,2.585816517E0,-3.570742571E0,-1.038331248E1,1.128050653E1
1.525353175E1,2.768772386E0,-3.756417688E0,-1.022297715E1,1.123770600E1
1.526358475E1,2.481192287E0,-3.694237812E0,-9.976112380E0,1.092366818E1
1.527363775E1,2.072882534E0,-3.599901174E0,-9.686889798E0,1.054001729E1
1.528369075E1,1.509165044E0,-3.680357984E0,-8.785896431E0,9.644407194E0
1.529374375E1,7.215180525E-1,-2.709309711E0,-8.308595234E0,8.768905415E0
1.530379675E1,7.239829463E-1,-1.041867264E0,-7.111501206E0,7.223786272E0
1.531384975E1,2.283712080E0,-1.033426662E-1,-2.839067613E0,3.645041218E0
1.532390275E1,5.289861980E0,8.322159313E-2,4.017957505E0,6.643308522E0
1.533395575E1,6.569041561E0,2.950203887E-1,9.104439291E0,1.123076840E1
1.534400875E1,4.487959038E0,1.041242781E0,1.249053673E1,1.331313151E1
1.535406175E1,1.225603883E0,3.354127205E0,1.315323910E1,1.362937904E1
1.536411475E1,-6.982607523E-1,5.229045090E0,1.337895332E1,1.438147672E1
1.537416775E1,-1.190057489E-1,5.194969271E0,1.773944306E1,1.848485078E1
1.538422075E1,2.430683161E0,5.500097449E0,2.209013754E1,2.289396141E1
1.539427375E1,5.387385936E0,5.727803814E0,2.462175505E1,2.584690475E1
1.540432675E1,6.135952916E0,4.334283101E0,2.579543624E1,2.686708877E1
1.541437975E1,4.274452052E0,3.307233997E0,2.554373466E1,2.610921518E1
1.542443275E1,2.172652844E0,2.672110018E0,2.520773493E1,2.544190427E1
1.543448575E1,9.202415237E-1,1.491739757E0,2.495655258E1,2.501802648E1
1.544453875E1,2.257640661E-1,8.372992813E-1,2.352308194E1,2.353906165E1
1.545459175E1,-8.408588469E-2,1.276733106E0,1.994265404E1,1.998365752E1
1.546464475E1,3.169120717E-1,1.894365724E0,1.543849236E1,1.555750948E1
1.547469775E1,1.710190564E0,2.292945857E0,1.164945452E1,1.199550512E1
1.548475075E1,3.052968117E0,2.357744116E0,8.100683448E0,8.972215109E0
1.549480375E1,3.378960915E0,2.406834854E0,4.325060288E0,5.993027396E0
1.550485675E1,2.895211993E0,2.555344337E0,4.739735466E-1,3.890589684E0
1.551490975E1,1.944701626E0,2.451349268E0,-3.476595967E0,4.677360064E0
1.552496275E1,8.053776500E-1,2.298175022E0,-7.052727333E0,7.461313853E0
1.553501575E1,-1.277483596E-1,2.436294296E0,-9.700997960E0,1.000306008E1
1.554506875E1,-5.644532885E-1,2.756673328E0,-1.146105256E1,1.180142284E1
1.555512175E1,-7.653884690E-1,2.616831903E0,-1.232527103E1,1.262322996E1
1.556517475E1,-8.114773922E-1,1.815941552E0,-1.276691123E1,1.292091953E1
1.557522825E1,-6.782838862E-1,4.577745666E-1,-1.248963158E1,1.251641018E1
1.558528125E1,-2.577693857E-1,-8.984771638E-1,-1.163533700E1,1.167282200E1
1.559533425E1,5.136698551E-2,-2.088084271E0,-1.050061815E1,1.070633999E1
1.560538725E1,3.146438637E-1,-2.695978352E0,-9.620196456E0,9.995773101E0
1.561544025E1,3.495998345E-1,-2.729923778E0,-9.331139351E0,9.728559269E0
1.562549325E1,1.300035210E-1,-2.464059945E0,-9.124595813E0,9.452340508E0
1.563554625E1,-1.088755209E-1,-1.822197927E0,-9.193720427E0,9.373193397E0
1.564559925E1,-2.164646909E-1,-1.312021198E0,-9.978965821E0,1.006717515E1
1.565565225E1,-4.162660232E-1,-1.380416518E0,-1.014615058E1,1.024808269E1
1.566570525E1,-3.083047144E-1,-1.527612133E0,-9.748135874E0,9.871919957E0
1.567575825E1,-4.813882546E-1,-1.734847542E0,-9.227693335E0,9.401688940E0
1.568581125E1,-8.252932665E-1,-1.941939986E0,-8.685098035E0,8.937738403E0
1.569586425E1,-1.145718418E0,-2.048160652E0,-8.517837262E0,8.835224070E0
1.570591725E1,-1.140983270E0,-2.091519949E0,-8.540081824E0,8.866188363E0
1.571597025E1,-7.745012815E-1,-2.123420457E0,-9.064327392E0,9.341884057E0
1.572602325E1,-2.441205957E-1,-1.973554858E0,-9.602211006E0,9.805966033E0
1.573607525E1,5.273320207E-1,-1.898075636E0,-9.777017026E0,9.973506510E0
1.574612925E1,1.241364760E0,-2.348902541E0,-1.000117238E1,1.034803259E1
1.575618225E1,1.695974960E0,-2.833755417E0,-9.586203668E0,1.013912233E1
1.576623525E1,1.858235486E0,-2.951604879E0,-9.473333110E0,1.009500127E1
1.577628725E1,1.441553105E0,-2.806370860E0,-9.739421768E0,1.023768182E1
1.578634125E1,8.919975717E-1,-2.302580022E0,-9.537510980E0,9.851987115E0
1.579639325E1,8.808231041E-1,-1.374034283E0,-8.531526178E0,8.686239605E0
1.580644725E1,1.557730848E0,-1.089704651E-1,-7.003515412E0,7.175488003E0
1.581650025E1,2.447298609E0,7.310901638E-1,-4.722979685E0,5.369385478E0
1.582655225E1,2.994631031E0,9.385478403E-1,-6.957239377E-1,3.214454675E0
1.583660525E1,3.985552821E0,3.800518412E-1,4.192105129E0,5.796793605E0
1.584665925E1,4.480877183E0,6.198941023E-1,8.471571752E0,9.603648108E0
1.585671125E1,5.039232776E0,2.938463262E0,1.310481246E1,1.434449522E1
1.586676425E1,5.886249910E0,5.579164084E0,1.689125180E1,1.873737968E1
1.587681725E1,5.723625394E0,5.569252469E0,2.037784359E1,2.188682183E1
1.588687025E1,5.738887796E0,3.525188084E0,2.422360410E1,2.514248953E1
1.589692425E1,6.339175819E0,2.338632199E0,2.700471528E1,2.783718732E1
1.590697625E1,5.937221843E0,9.686062563E-1,2.908792151E1,2.970346746E1
1.591702925E1,5.259489203E0,2.326926512E-1,2.971536751E1,3.017812849E1
1.592708225E1,4.289632008E0,1.751050030E0,2.754967578E1,2.793656662E1
1.593713525E1,2.361026743E0,2.678654806E0,2.377536123E1,2.404199327E1
1.594718825E1,1.244966060E0,3.382722136E0,1.897278807E1,1.931215774E1
1.595724125E1,6.048324788E-1,3.812101600E0,1.501769632E1,1.550577775E1
1.596729425E1,4.806399572E-1,4.175099087E0,1.119999426E1,1.196253897E1
1.597734725E1,3.333749074E-1,4.337482990E0,7.166372647E0,8.383423789E0
1.598740025E1,1.068850556E-1,4.362820145E0,2.821277459E0,5.196655706E0
1.599745325E1,1.894990499E-1,3.563300820E0,-8.746282715E-1,3.673962063E0
1.600750625E1,1.281977181E-1,2.300533350E0,-3.869213110E0,4.503298617E0
1.601755925E1,-9.635802090E-1,1.278252943E0,-6.790673838E0,6.976795008E0
1.602761225E1,-2.205903474E0,-1.025952458E-2,-8.892902232E0,9.162413738E0
1.603766525E1,-3.248538769E0,-1.415356263E0,-9.873994267E0,1.049056720E1
1.604771825E1,-4.059570969E0,-2.125054462E0,-1.040405138E1,1.136838854E1
1.605777125E1,-4.421763879E0,-2.449286078E0,-1.098545758E1,1.209261247E1
1.606782425E1,-4.261516256E0,-2.762967563E0,-1.134734058E1,1.243208144E1
1.607787725E1,-3.804159327E0,-3.019579931E0,-1.108924799E1,1.210623444E1
1.608793025E1,-3.089452404E0,-3.175843846E0,-1.025000298E1,1.116661369E1
1.609798325E1,-2.234512000E0,-3.131300926E0,-9.475303037E0,1.022640978E1
1.610803625E1,-1.685749349E0,-3.201678014E0,-9.240979963E0,9.924122311E0
1.611808925E1,-1.285159382E0,-3.439246877E0,-9.948459728E0,1.060433424E1
1.612814225E1,-1.266496385E0,-3.528218696E0,-1.059911216E1,1.124248722E1
1.613819525E1,-1.481796713E0,-3.715051561E0,-1.092766019E1,1.163662695E1
1.614824825E1,-1.565072320E0,-4.164301034E0,-1.054227021E1,1.144247856E1
1.615830125E1,-1.747269221E0,-4.495684964E0,-9.912223363E0,1.102344343E1
1.616835525E1,-1.999330116E0,-4.487240708E0,-9.592791726E0,1.077749058E1
1.617840725E1,-2.297408160E0,-4.481492018E0,-9.648370095E0,1.088360696E1
1.618846125E1,-2.446806712E0,-4.383942334E0,-9.621324969E0,1.085245169E1
1.619851425E1,-2.245096630E0,-3.915742328E0,-9.515271095E0,1.053156593E1
1.620856625E1,-1.497004882E0,-3.235219397E0,-9.466683657E0,1.011561998E1
1.621861925E1,-3.941134447E-1,-2.478568057E0,-8.983912974E0,9.327878502E0
1.622867225E1,4.574097003E-1,-1.739024208E0,-8.467255923E0,8.656087551E0
1.623872625E1,6.896118432E-1,-1.360059730E0,-8.200336960E0,8.340914411E0
1.624877925E1,7.040908648E-1,-1.386259933E0,-7.572076442E0,7.730058357E0
1.625883225E1,1.265993525E0,-1.737136142E0,-6.551488804E0,6.895098776E0
1.626888525E1,1.737132195E0,-1.998910432E0,-5.370453569E0,5.987908041E0
1.627893825E1,1.845190202E0,-1.014910284E0,-4.460796382E0,4.932897134E0
1.628899125E1,1.793370861E0,3.873078704E-1,-3.667953701E0,4.101227961E0
1.629904425E1,2.342563575E0,1.398443777E0,-1.747055651E0,3.239668586E0
1.630909725E1,3.980334765E0,2.144818051E0,2.208562934E0,5.032003532E0
1.631914925E1,5.117348068E0,2.718318517E0,6.360428694E0,8.604159458E0
1.632920325E1,4.991426525E0,3.363452929E0,1.029353199E1,1.192409138E1
1.633925525E1,4.228647303E0,4.325673076E0,1.330804531E1,1.461837801E1
1.634930925E1,3.330967553E0,5.136153883E0,1.621157847E1,1.732889778E1
1.635936225E1,3.513001902E0,5.456597673E0,2.061965636E1,2.161679599E1
1.636941525E1,5.193142017E0,5.173271424E0,2.493777366E1,2.599276854E1
1.637946825E1,6.300691200E0,4.075875930E0,2.738989710E1,2.839925945E1
1.638952125E1,6.437157612E0,4.173086475E0,2.696612833E1,2.803611468E1
1.639957425E1,5.601378826E0,5.334300234E0,2.448031324E1,2.567325340E1
1.640962725E1,4.594511972E0,5.543016597E0,2.084916893E1,2.205725319E1
1.641968025E1,3.924663425E0,4.533182573E0,1.701212077E1,1.803787627E1
1.642973325E1,2.976527174E0,3.351639799E0,1.281692714E1,1.357817457E1
1.643978625E1,2.210462987E0,2.787873193E0,8.823900994E0,9.514179540E0
1.644983925E1,1.792152594E0,2.312052657E0,5.099490672E0,5.878962793E0
1.645989225E1,1.734487061E0,1.930920324E0,1.489063048E0,2.992358171E0
1.646994525E1,2.182835477E0,1.729813966E0,-1.727949289E0,3.277626553E0
1.647999825E1,3.245554935E0,1.258111770E0,-4.067719064E0,5.353766006E0
1.649005125E1,4.700642737E0,7.022574703E-1,-5.912477596E0,7.585947470E0
1.650010425E1,5.306144137E0,4.108275644E-1,-6.948371490E0,8.752360325E0
1.651015725E1,4.408975434E0,9.555227458E-2,-6.917450244E0,8.203615818E0
1.652021025E1,1.967415136E0,-6.406358573E-1,-7.962227229E0,8.226676064E0
1.653026325E1,-1.227054285E-1,-1.109050748E0,-1.077649563E1,1.083410856E1
1.654031625E1,-1.845067118E0,-1.810741623E0,-1.186953086E1,1.214779077E1
1.655036925E1,-3.236844923E0,-2.879552857E0,-1.131276600E1,1.211394503E1
1.656042225E1,-3.837681999E0,-3.714472102E0,-1.074035984E1,1.199501711E1
1.657047504E1,-4.124717138E0,-3.960220343E0,-1.037501645E1,1.184641730E1
1.658052804E1,-4.288806381E0,-3.649153733E0,-1.036020428E1,1.179169266E1
1.659058104E1,-3.996299711E0,-3.264132124E0,-1.036523990E1,1.157856503E1
1.660063404E1,-3.541091926E0,-3.057946144E0,-1.030066793E1,1.131344892E1
1.661068704E1,-3.236219271E0,-2.952514706E0,-9.680884708E0,1.062591111E1
1.662074004E1,-3.075239869E0,-2.663278091E0,-9.251538865E0,1.010648909E1
1.663079304E1,-2.930153784E0,-2.190581284E0,-8.811461043E0,9.540770056E0
1.664084604E1,-2.679675438E0,-1.611744356E0,-8.425966394E0,8.987507441E0
1.665089904E1,-2.390575647E0,-1.051286543E0,-8.126079660E0,8.535410123E0
