"Time (s)","Linear Acceleration x (m/s^2)","Linear Acceleration y (m/s^2)","Linear Acceleration z (m/s^2)","Absolute acceleration (m/s^2)"
8.866083226E-3,2.791744342E0,-1.177653557E1,-2.112176262E0,1.228584206E1
1.892108331E-2,2.298028842E0,-1.383423391E1,-2.345328138E0,1.421856281E1
2.897508326E-2,1.687531873E0,-1.376458889E1,-3.524203413E0,1.430844788E1
3.902908333E-2,7.908742163E-1,-1.454624351E1,-3.331826509E0,1.494388671E1
4.908408329E-2,6.217671847E-1,-1.228937614E1,-1.844877230E0,1.244262562E1
5.913808325E-2,-1.034677966E0,-1.035712397E1,6.114363241E-1,1.042662121E1
6.919208332E-2,-1.433939299E0,-8.682411824E0,2.465094903E0,9.138771792E0
7.924708328E-2,-7.604160699E-1,-5.001293702E0,2.772622193E0,5.768761142E0
8.930108324E-2,-1.483248577E-1,8.803164428E-1,-1.031168357E-1,8.986603278E-1
9.935508331E-2,-1.175339463E0,3.743906109E0,-2.870250814E0,4.861748198E0
1.094100833E-1,-4.773870049E0,3.803697397E0,-2.418424766E0,6.565571375E0
1.194640832E-1,-7.000563152E0,2.992191573E0,-4.535667640E-1,7.626717359E0
1.295180833E-1,-5.938373744E0,2.607138389E0,1.282294977E0,6.611031214E0
1.395730833E-1,-2.979399327E0,2.969859302E0,5.621767482E0,7.021478067E0
1.496270833E-1,-6.304789513E-1,3.591742846E0,1.452045378E1,1.497136261E1
1.596810833E-1,-6.544557515E-1,1.921475170E0,9.072798838E0,9.297099436E0
1.697360832E-1,-6.800422901E-1,3.862781757E-1,2.438251505E0,2.560612963E0
1.797900833E-1,9.726088947E-1,-4.013552213E-1,4.542338582E-1,1.146029002E0
1.898440833E-1,3.025599932E0,-9.719136608E-1,-8.178360200E-1,3.281421470E0
1.998990832E-1,9.755450740E-1,-1.653148783E0,-1.596575217E0,2.496726159E0
2.099530833E-1,-5.152914342E-1,-8.868968993E-1,-1.374303254E0,1.714882156E0
2.200069582E-1,-2.346013725E0,8.649552226E-2,-1.282642302E0,2.675151051E0
2.300619583E-1,-3.322803963E0,1.008121374E0,-1.340987574E0,3.722308767E0
2.401159583E-1,-3.249477540E0,1.580426962E0,-1.479096469E0,3.904430820E0
2.501699583E-1,-1.834949242E0,1.694938248E0,-1.935337749E0,3.159966233E0
2.602249583E-1,-2.468445942E-1,1.182359045E0,-2.277944825E0,2.578359516E0
2.702789583E-1,4.074079666E-1,4.891909254E-1,-2.242306631E0,2.330928579E0
2.803329583E-1,6.083840775E-1,3.634845597E-1,-1.676517180E0,1.820154407E0
2.903879583E-1,1.211843338E0,3.486653763E-1,-1.699662799E-1,1.272407307E0
3.004419582E-1,1.577027975E0,1.951290123E0,3.700394053E0,4.470734451E0
3.104959583E-1,4.932630433E0,8.431544638E0,4.317005163E0,1.067980906E1
3.205509583E-1,-6.253626376E-1,3.220684973E0,2.863226554E0,4.354532859E0
3.306049582E-1,-1.543414087E0,1.543557928E0,6.771432406E-1,2.285436739E0
3.406589583E-1,4.892651850E-1,1.888265909E0,1.285276107E-1,1.954852401E0
3.507139583E-1,7.269346207E-1,1.022880916E0,9.303083825E-1,1.562111711E0
3.607679583E-1,1.232645100E0,4.898013747E-1,6.286195368E-1,1.467815333E0
3.708219583E-1,1.314918348E0,1.708129567E-1,1.586724194E-1,1.335426622E0
3.808769583E-1,1.119317874E0,1.187350228E0,-3.734523082E-1,1.673959287E0
3.909309583E-1,4.890485457E-1,3.085716618E0,-1.037970825E0,3.292142002E0
4.009849583E-1,-8.579862186E-1,5.394645254E0,-2.664967936E0,6.077860797E0
4.110399582E-1,-2.544959682E0,6.282885259E0,-3.531918229E0,7.643684539E0
4.210939583E-1,-2.480547924E0,5.589891971E0,-1.212194463E0,6.234534920E0
4.311479583E-1,-1.530573309E0,3.453231663E0,2.052735221E0,4.298974932E0
4.412029582E-1,-9.944447368E-1,1.856580432E0,2.967323949E0,3.638794121E0
4.512569583E-1,-1.316382198E0,1.392373490E0,2.329220229E0,3.016095638E0
4.613119583E-1,-1.693610784E0,1.072570555E0,1.459090805E0,2.479449750E0
4.713659583E-1,-1.408915409E0,-9.871152520E-2,8.231909001E-1,1.634756818E0
4.814199583E-1,-3.005541936E-1,-2.413092105E0,1.516564257E0,2.865887904E0
4.914749583E-1,6.378367952E-1,-3.802846043E0,2.123760180E0,4.402139378E0
5.015289583E-1,-3.743719290E-1,-1.771289436E0,2.146018192E0,2.807670687E0
5.115829583E-1,-2.304478320E0,3.725048254E0,5.872288879E-1,4.419439171E0
5.216379582E-1,-1.378967461E1,2.025880129E1,-1.044966434E0,2.452888319E1
5.316919583E-1,-1.029588725E1,1.210610803E1,-3.066449457E0,1.618537173E1
5.417459583E-1,-1.777254619E0,-5.089385514E0,-1.166297328E-1,5.392038704E0
5.518009582E-1,1.461485386E0,-1.391324967E1,9.230321074E-1,1.402021555E1
5.618549583E-1,2.123246503E0,-1.489067492E1,3.334013368E0,1.540636298E1
5.719089583E-1,2.450056449E-1,-9.124652531E0,3.109110743E0,9.642918707E0
5.819639583E-1,-6.227783145E-1,-4.324221212E0,1.167322930E0,4.522099595E0
5.920179583E-1,7.556982440E-1,-4.777215534E0,-6.990170896E-1,4.886869446E0
6.020719582E-1,2.154521213E0,-6.854305578E0,-1.483632739E0,7.336527292E0
6.121269583E-1,3.829415790E0,-7.529329203E0,-2.066199020E0,8.696229179E0
6.221809583E-1,5.331756111E0,-6.999106611E0,-3.067828231E0,9.318083850E0
6.322349582E-1,5.408955730E0,-6.016736374E0,-2.724383833E0,8.536989279E0
6.422899583E-1,5.079641714E0,-5.395308913E0,-1.690537634E0,7.600660214E0
6.523439583E-1,4.246716954E0,-4.621429921E0,-5.318416858E-1,6.298815363E0
6.623979583E-1,2.754205803E0,-3.888130606E0,6.132828748E-1,4.804094618E0
6.724529583E-1,1.509465591E0,-3.479786208E0,2.223498477E0,4.396742419E0
6.825069583E-1,5.770877329E-1,-3.097279487E0,3.613640084E0,4.794222057E0
6.925609583E-1,-2.395632027E-1,-2.503174894E0,3.650281076E0,4.432586944E0
7.026159583E-1,-6.816875504E-1,-1.740963437E0,2.488698943E0,3.112759874E0
7.126699582E-1,5.851007572E-1,-3.506820810E-1,1.651746036E0,1.787060655E0
7.227239583E-1,2.160599978E0,1.016052538E0,1.692495282E0,2.926618407E0
7.327789583E-1,3.042516219E0,1.878112219E0,1.417512424E0,3.846238672E0
7.428329582E-1,3.454776497E0,2.778956482E0,8.039956605E-1,4.506050244E0
7.528869583E-1,3.224360240E0,3.723412787E0,5.592159740E-1,4.957118543E0
7.629419583E-1,2.604791024E0,4.506788242E0,2.966807055E-1,5.213836973E0
7.729959583E-1,1.822640415E0,4.713676765E0,1.120373297E-1,5.055029089E0
7.830499583E-1,1.104996874E0,4.431969609E0,2.101641333E-1,4.572476536E0
7.931049583E-1,8.568756862E-1,4.120277932E0,9.709862924E-1,4.318997633E0
8.031589583E-1,5.174917415E-1,3.457966154E0,1.471003922E0,3.793307285E0
8.132129583E-1,2.410032257E-2,2.580224825E0,1.138785082E0,2.820456069E0
8.232679582E-1,-9.499450868E-1,1.648966269E0,6.373933569E-1,2.006926934E0
8.333219583E-1,-1.699169440E0,8.892199981E-1,4.592203637E-1,1.971997042E0
8.433759583E-1,-2.142600933E0,7.989284635E-2,2.398469388E-1,2.157463366E0
8.534309582E-1,-2.550977637E0,-5.966159713E-1,-2.016516837E-1,2.627565588E0
8.634849583E-1,-2.801558602E0,-8.741388595E-1,-4.144260871E-1,2.963882306E0
8.735389583E-1,-2.985918680E0,-8.059375209E-1,-4.508389648E-1,3.125460194E0
8.835939583E-1,-3.228946796E0,-3.555510575E-1,-6.889341509E-1,3.320714416E0
8.936479583E-1,-2.976252648E0,-1.710725731E-1,-1.066947141E0,3.166342030E0
9.037019582E-1,-2.215129649E0,-4.027813572E-1,-6.790345225E-1,2.351620732E0
9.137569583E-1,-1.418661840E0,-9.111698610E-1,-2.806181118E-2,1.686303472E0
9.238109583E-1,-5.700064623E-1,-1.823517351E0,7.691613118E-1,2.059546557E0
9.338649582E-1,8.031231098E-2,-2.466521038E0,1.117510500E0,2.709059951E0
9.439199583E-1,7.380433072E-1,-2.520552819E0,9.068152933E-1,2.778526303E0
9.539739583E-1,6.991157614E-1,-2.428207743E0,5.962427728E-1,2.596239807E0
9.640279582E-1,-5.881045450E-1,-2.019685589E0,9.105528335E-1,2.292183085E0
9.740829583E-1,-1.198216109E0,-1.092476816E0,1.360601328E0,2.116710516E0
9.841369583E-1,-1.344346799E0,-3.202584332E-1,1.409819827E0,1.974189891E0
9.941909583E-1,-1.489553044E0,2.792016238E-1,1.115193833E0,1.881589515E0
1.004245958E0,-1.300819834E0,7.141929531E-1,6.460693824E-1,1.618520763E0
1.014299958E0,-6.376833788E-1,8.544729191E-1,6.960189298E-2,1.068460802E0
1.024353958E0,5.699193388E-2,6.756814367E-1,-3.192837024E-1,7.494902047E-1
1.034408958E0,6.128177288E-1,4.409122199E-1,-4.192010696E-1,8.635268908E-1
1.044462958E0,9.866344647E-1,2.630843586E-1,-2.970220368E-1,1.063429846E0
1.054516958E0,1.200239538E0,1.284481251E-1,-1.259431779E-1,1.213645564E0
1.064571958E0,1.395577472E0,5.708870530E-2,4.038423344E-2,1.397328339E0
1.074625958E0,1.549618275E0,5.537196279E-2,2.901201296E-1,1.577514672E0
1.084679958E0,1.699495861E0,9.765727222E-2,5.160425091E-1,1.778798188E0
1.094734958E0,1.831463717E0,1.770221150E-1,5.966861379E-1,1.934329477E0
1.104788958E0,1.920677025E0,2.626551729E-1,4.902797500E-1,1.999590510E0
1.114842958E0,1.914915471E0,2.754921502E-1,2.459012921E-1,1.950196050E0
1.124897958E0,1.812014270E0,2.290904009E-1,-4.062872015E-2,1.826890478E0
1.134951958E0,1.466566032E0,1.114993858E-1,-1.598147826E-1,1.479455577E0
1.145005958E0,1.007277182E0,3.743796766E-2,-9.451899849E-2,1.012394570E0
1.155060958E0,5.566973224E-1,2.456590712E-2,3.980915979E-2,5.586592537E-1
1.165114958E0,2.890198663E-1,3.874306619E-2,1.449008743E-1,3.256221302E-1
1.175168958E0,1.243248879E-1,2.121428311E-2,1.880066943E-1,2.263917858E-1
1.185223958E0,1.093988467E-2,-5.615782857E-2,1.442521258E-1,1.551839508E-1
1.195277958E0,-6.482946865E-2,-1.453389770E-1,6.574967422E-2,1.721897148E-1
1.205331958E0,6.521205928E-2,-1.301999509E-1,-1.143247604E-2,1.460662227E-1
1.215386833E0,-6.350708429E-2,-2.508689404E-2,5.573449016E-2,8.814099727E-2
1.225440833E0,-3.899518717E-1,6.128408253E-2,1.829208592E-1,4.350611931E-1
1.235494833E0,-7.068068965E-1,7.119862139E-2,2.552123252E-1,7.548367794E-1
1.245549833E0,-7.253792614E-1,9.982425034E-2,1.813326824E-1,7.543351347E-1
1.255603833E0,-3.965704082E-1,1.560896677E-1,1.149527514E-1,4.414138739E-1
1.265657833E0,1.791619767E-2,8.230248392E-2,1.686453938E-2,8.590169781E-2
1.275712833E0,1.879731825E-1,1.351876259E-2,-9.511007890E-3,1.886985255E-1
1.285766833E0,2.634654326E-1,2.143881619E-2,-3.793074176E-2,2.670438132E-1
1.295820833E0,1.880889573E-1,9.443194807E-2,-3.776365757E-2,2.138245601E-1
1.305875833E0,1.455224334E-1,6.096131623E-2,-6.190198705E-2,1.694842668E-1
1.315929833E0,1.908473448E-1,-4.389680207E-2,-1.151422012E-1,2.271725440E-1
1.325983833E0,3.013856128E-1,-1.514382076E-1,2.003504589E-2,3.378878829E-1
1.336038833E0,4.559157367E-1,-2.556092781E-1,1.872361775E-1,5.552050506E-1
1.346092833E0,5.441265762E-1,-4.140968889E-1,1.614616509E-1,7.025808345E-1
1.356146833E0,5.836553255E-1,-5.006795347E-1,6.531924605E-2,7.717513455E-1
1.366201833E0,8.092781813E-1,-4.281430703E-1,4.673240930E-3,9.155651275E-1
1.376255833E0,9.135338172E-1,-3.374743903E-1,4.303901553E-2,9.748258080E-1
1.386309833E0,7.237256688E-1,-2.212609792E-1,2.445982401E-1,7.953386471E-1
1.396364833E0,3.355187524E-1,3.632699668E-2,3.314084888E-1,4.729947889E-1
1.406418833E0,-1.017996042E-1,1.441239256E-1,1.441044836E-1,2.278178385E-1
1.416472833E0,-2.704568204E-1,8.684577048E-2,1.561439006E-1,3.241450250E-1
1.426527833E0,-1.390863483E-1,-1.109678739E-1,2.795800848E-1,3.313968997E-1
1.436581833E0,2.653394104E-1,-3.870207721E-1,5.146425395E-1,6.964531744E-1
1.446635833E0,4.661694872E-1,-5.199513727E-1,5.812108970E-1,9.085535359E-1
1.456690833E0,4.826363062E-1,-5.266095972E-1,6.357025614E-1,9.562286435E-1
1.466744833E0,4.654614624E-1,-2.765265226E-1,7.441844916E-1,9.202890026E-1
1.476798833E0,2.771217692E-1,1.582695097E-1,8.851645155E-1,9.409367312E-1
1.486853833E0,1.022680941E-1,4.454198384E-1,9.094781153E-1,1.017844800E0
1.496907833E0,4.686155967E-2,3.291193038E-1,7.071447194E-1,7.813892603E-1
1.506961833E0,1.933458600E-1,8.188265383E-2,3.154270251E-1,3.789216261E-1
1.517016833E0,4.079528540E-1,-9.581598401E-2,-4.137124345E-2,4.210912177E-1
1.527070833E0,5.440071103E-1,-1.364938939E-1,-2.663538292E-1,6.209015070E-1
1.537124833E0,6.898189078E-1,3.695264876E-2,-3.651431224E-1,7.813738693E-1
1.547179833E0,7.327832251E-1,2.849424201E-1,-3.528986143E-1,8.618009455E-1
1.557233833E0,6.943498421E-1,4.847903109E-1,-2.892351535E-1,8.948744732E-1
1.567287833E0,6.362032293E-1,6.754417008E-1,-1.495083341E-1,9.398557241E-1
1.577342833E0,5.421468186E-1,7.620231771E-1,-5.661858916E-2,9.369141690E-1
1.587396833E0,4.557948455E-1,7.700923347E-1,-1.865963459E-2,8.950638677E-1
1.597450833E0,3.850616625E-1,6.625667167E-1,-5.008242533E-2,7.679683504E-1
1.607505833E0,2.248415217E-1,3.685815775E-1,-4.883974582E-2,4.345013348E-1
1.617559833E0,4.345255986E-2,4.452362359E-2,4.228370145E-2,7.522226681E-2
1.627614833E0,-1.777325517E-1,-1.466469991E-1,2.534040007E-1,3.425022480E-1
1.637668833E0,-4.148108339E-1,-1.953543055E-1,4.491114780E-1,6.418196416E-1
1.647722833E0,-6.465311663E-1,-1.308367127E-1,6.458729160E-1,9.231861231E-1
1.657777833E0,-8.157128960E-1,-3.181119204E-2,7.221055515E-1,1.089878850E0
1.667831833E0,-1.061076975E0,-1.994953036E-2,6.599515495E-1,1.249727322E0
1.677885833E0,-1.206114236E0,7.717213690E-2,5.029671116E-1,1.309061879E0
1.687940833E0,-1.315511401E0,2.334284502E-1,2.468024942E-1,1.358664992E0
1.697994833E0,-1.306875502E0,4.747898179E-1,-7.004365012E-2,1.392212291E0
1.708048833E0,-1.375874548E0,6.467470747E-1,-2.781026396E-1,1.545526974E0
1.718103833E0,-1.503862351E0,5.783410835E-1,-4.060655920E-1,1.661616575E0
1.728157833E0,-1.424949205E0,5.880819601E-1,-3.065869121E-1,1.571723946E0
1.738211833E0,-1.373168310E0,6.972184861E-1,-1.740811117E-1,1.549841624E0
1.748266833E0,-1.338606880E0,5.539576095E-1,-7.735413149E-2,1.450765685E0
1.758320833E0,-1.296128028E0,2.281501687E-1,-8.918407202E-2,1.319073221E0
1.768374833E0,-1.125431723E0,-2.358825266E-2,-5.082516789E-2,1.126825704E0
1.778429833E0,-8.657505901E-1,-1.745616066E-1,1.434453562E-2,8.832902153E-1
1.788483833E0,-5.525887764E-1,-3.932427943E-1,6.283651829E-2,6.811333783E-1
1.798537833E0,-2.079908694E-1,-4.362046266E-1,2.027698906E-1,5.240708984E-1
1.808592833E0,9.889951319E-2,-3.205899704E-1,4.559648533E-1,5.660945065E-1
1.818646833E0,3.742814434E-1,-5.299097657E-2,7.239471321E-1,8.166970629E-1
1.828700833E0,6.210272196E-1,1.822787619E-1,8.404824324E-1,1.060806803E0
1.838755833E0,8.789593041E-1,2.888892907E-1,7.630193965E-1,1.199260222E0
1.848809833E0,1.084180055E0,3.638640440E-1,6.754070561E-1,1.328163441E0
1.858863833E0,1.243521798E0,4.375477320E-1,6.037201922E-1,1.449921567E0
1.868918833E0,1.392217369E0,4.927559727E-1,5.756829393E-1,1.585083120E0
1.878972833E0,1.424478943E0,5.585967904E-1,5.293439014E-1,1.619066274E0
1.889026833E0,1.381203992E0,5.302500737E-1,4.678592594E-1,1.551702902E0
1.899081833E0,1.349793334E0,3.014011627E-1,3.577211054E-1,1.428547898E0
1.909135833E0,1.398505465E0,-4.557729185E-1,2.185056250E-1,1.487041088E0
1.919189833E0,1.219951379E0,-1.292925215E0,2.699158068E-1,1.797996530E0
1.929244833E0,1.046306762E0,-1.552218824E0,6.488655210E-1,1.981203569E0
1.939298833E0,8.874177401E-1,-1.433128583E0,1.065856051E0,1.994346234E0
1.949352833E0,7.529181853E-1,-1.098684220E0,1.396397982E0,1.929746132E0
1.959407833E0,7.973207715E-1,-6.025397855E-1,1.497754934E0,1.800567813E0
1.969461833E0,8.257848711E-1,3.423264098E-1,1.482488000E0,1.731149530E0
1.979515833E0,6.663517655E-1,6.617633092E-1,1.375139991E0,1.665222312E0
1.989570833E0,5.292775355E-1,3.138434529E-1,1.116999599E0,1.275272727E0
1.999624833E0,3.041208489E-1,8.880575716E-2,8.895509505E-1,9.442864220E-1
2.009678833E0,-1.544220418E-2,-4.621639252E-2,7.011628716E-1,7.028540311E-1
2.019733833E0,-2.738137069E-1,-4.297832143E-1,4.928713091E-1,7.089497054E-1
2.029787833E0,-4.713107246E-1,-6.474727142E-1,2.909397630E-1,8.520567237E-1
2.039841833E0,-8.370713130E-1,-5.028739947E-1,1.289739360E-1,9.849898039E-1
2.049896833E0,-8.723798709E-1,2.022241992E-1,1.324429429E-1,9.052526713E-1
2.059950833E0,-6.884571643E-1,9.875877070E-1,-2.200881739E-1,1.223822516E0
2.070004833E0,-6.400189760E-1,1.025701028E0,-3.139044102E-1,1.249088815E0
2.080059833E0,-5.222105907E-1,7.511648977E-1,-3.579618645E-1,9.823895872E-1
2.090113833E0,-4.220302449E-1,4.255077302E-1,-3.765491398E-1,7.077821775E-1
2.100167833E0,-7.728995830E-2,-1.792768013E-1,-4.299340725E-1,4.721834557E-1
2.110222833E0,1.722727141E-1,-3.826698589E-1,-2.821901357E-1,5.057127462E-1
2.120276833E0,3.113075155E-1,-3.262097293E-1,8.998543292E-2,4.598070626E-1
2.130330833E0,4.408433689E-1,-2.252932191E-1,4.820481129E-1,6.909922529E-1
2.140385833E0,4.817526823E-1,-6.857556045E-2,8.268850248E-1,9.594410345E-1
2.150439833E0,5.665457878E-1,-2.897470772E-2,1.033677946E0,1.179111428E0
2.160493833E0,5.655704722E-1,1.025987542E-1,1.108064908E0,1.248280539E0
2.170548833E0,4.827553336E-1,1.772905022E-1,1.019036518E0,1.141455237E0
2.180602833E0,3.634553236E-1,2.788121992E-1,8.202382024E-1,9.394821570E-1
2.190656833E0,2.571546972E-1,3.198795336E-1,6.287955379E-1,7.508896609E-1
2.200711833E0,2.845825240E-2,4.163767183E-1,4.856555526E-1,6.403442507E-1
2.210765833E0,-3.018481824E-1,6.351982391E-1,2.753219962E-1,7.552425635E-1
2.220819958E0,-4.734883739E-1,7.186567175E-1,3.603741333E-2,8.613694986E-1
2.230874958E0,-4.891868323E-1,4.563991553E-1,-1.174192531E-1,6.792578500E-1
2.240928958E0,-5.173000990E-1,3.054965526E-1,-1.182492654E-1,6.122992935E-1
2.250982958E0,-7.171174380E-1,2.446410710E-1,-4.976448298E-2,7.593307430E-1
2.261037958E0,-8.719166252E-1,1.250614178E-1,1.582139611E-2,8.809819953E-1
2.271091958E0,-9.921896119E-1,-6.317916512E-3,9.280715302E-2,9.965406714E-1
2.281145958E0,-1.092276110E0,-9.961258113E-2,2.214738178E-1,1.118946120E0
2.291200958E0,-1.135566556E0,-1.092055231E-1,3.780132826E-1,1.201803349E0
2.301254958E0,-1.099327852E0,-9.341745615E-2,4.559999366E-1,1.193810910E0
2.311308958E0,-1.070744469E0,-2.837127507E-1,4.200046232E-1,1.184647849E0
2.321363958E0,-8.861516717E-1,-3.084026188E-1,4.910854232E-1,1.059028731E0
2.331417958E0,-7.630179347E-1,-1.360524291E-1,7.059388773E-1,1.048358875E0
2.341471958E0,-8.788791972E-1,2.704337239E-3,8.829764874E-1,1.245826406E0
2.351526958E0,-1.120273163E0,3.181645453E-1,1.113335442E0,1.611135141E0
2.361580958E0,-1.332997500E0,6.776537025E-1,1.495402160E0,2.114787104E0
2.371634958E0,-1.336353071E0,8.594991857E-1,1.913716207E0,2.487345594E0
2.381689958E0,-1.157516711E0,9.918824869E-1,2.200049973E0,2.676545476E0
2.391743958E0,-7.017316595E-1,8.322382969E-1,1.761477516E0,2.070712666E0
2.401797958E0,-6.113103166E-2,1.173302293E-1,6.419447565E-1,6.554360809E-1
2.411852958E0,5.573232669E-1,-5.210120577E-1,-1.770802948E-1,7.832114777E-1
2.421906958E0,1.208262210E0,-7.634393728E-1,-4.498523203E-1,1.498367230E0
2.431960958E0,1.602171880E0,-1.002150782E0,-4.570835719E-1,1.944270124E0
2.442015958E0,1.797213652E0,-1.105827178E0,-3.453339252E-1,2.138243713E0
2.452069958E0,2.067048036E0,-1.050194430E0,-1.717175210E-1,2.324883401E0
2.462123958E0,2.454554127E0,-1.054955817E0,9.748214811E-2,2.673437957E0
2.472178958E0,2.654591175E0,-1.202142515E0,3.293069994E-1,2.932651366E0
2.482232958E0,2.734115939E0,-1.297451545E0,5.370536014E-1,3.073629296E0
2.492286958E0,2.806333438E0,-1.015231588E0,7.786924195E-1,3.084244547E0
2.502341958E0,2.725305939E0,-6.913613302E-1,1.000193135E0,2.984235121E0
2.512395958E0,2.394446358E0,-4.500999498E-1,1.237252121E0,2.732536576E0
2.522449958E0,1.945933050E0,-2.823608744E-1,1.358758139E0,2.390106019E0
2.532504958E0,1.451051030E0,-2.178637469E-1,1.338471078E0,1.986081199E0
2.542558958E0,1.024929049E0,-2.677668089E-1,1.188404481E0,1.592006229E0
2.552612958E0,7.777485327E-1,-3.220143521E-1,1.089768678E0,1.377019170E0
2.562667958E0,5.703688435E-1,-2.130947578E-1,1.050580931E0,1.214269445E0
2.572721958E0,3.248382649E-1,1.190463871E-1,9.811490455E-1,1.040358299E0
2.582775958E0,-5.669431061E-2,3.805905890E-1,8.660183926E-1,9.476556852E-1
2.592830958E0,-5.058991979E-1,6.180173653E-1,7.329341564E-1,1.084007352E0
2.602884958E0,-8.715391874E-1,5.168845081E-1,2.877318344E-1,1.053346932E0
2.612938958E0,-1.120799997E0,4.188705558E-1,-1.510101914E-1,1.206005495E0
2.622993958E0,-1.207000528E0,6.268788207E-1,-4.108850133E-1,1.420793378E0
2.633047958E0,-1.129013143E0,6.254351431E-1,-5.329010551E-1,1.396360745E0
2.643101958E0,-1.049969750E0,5.412539488E-1,-6.807081418E-1,1.363361980E0
2.653156958E0,-1.092097185E0,5.083469886E-1,-6.715363455E-1,1.379149733E0
2.663210958E0,-1.092194103E0,6.560225129E-1,-5.748773392E-1,1.397761586E0
2.673264958E0,-1.011972643E0,9.104395437E-1,-4.859680863E-1,1.445390526E0
2.683319958E0,-8.178684720E-1,1.028046346E0,-4.809159458E-1,1.398952563E0
2.693373958E0,-5.727442749E-1,9.058401239E-1,-6.049003065E-1,1.230644837E0
2.703427958E0,-3.322162816E-1,6.192388487E-1,-7.210879898E-1,1.006872533E0
2.713482958E0,-3.067452255E-1,4.535334349E-1,-5.669273186E-1,7.881572143E-1
2.723536958E0,-2.456846528E-1,5.992133045E-1,-2.671135287E-1,7.005477644E-1
2.733590958E0,-2.078784567E-1,9.123954374E-1,-1.943760663E-3,9.357791754E-1
2.743644958E0,9.647423431E-2,1.533946275E0,4.832226723E-2,1.537736484E0
2.753699958E0,5.913232179E-1,1.820074511E0,-1.379124284E-2,1.913772340E0
2.763753958E0,1.133103855E0,1.697808062E0,-3.283898637E-2,2.041459027E0
2.773807958E0,1.399191782E0,1.162921731E0,-6.431805655E-2,1.820511304E0
2.783862958E0,1.262511069E0,4.676456898E-1,4.615792036E-2,1.347129261E0
2.793916958E0,7.823274873E-1,-2.438055038E-1,3.783041815E-1,9.025472148E-1
2.803970958E0,3.048039499E-1,-8.469516456E-1,8.963841529E-1,1.270329519E0
2.814025958E0,2.191521809E-1,-1.375955093E0,1.398322008E0,1.973976833E0
2.824079958E0,1.665417118E-1,-1.881925188E0,1.772137721E0,2.590337943E0
2.834133958E0,1.267765523E-1,-2.165393525E0,1.800012860E0,2.818696101E0
2.844188958E0,-3.226902902E-2,-2.106517911E0,1.600194790E0,2.645577889E0
2.854242958E0,-2.879901351E-1,-1.829465139E0,1.701243886E0,2.514778672E0
2.864296958E0,-7.163869746E-1,-1.152325991E0,1.986664170E0,2.405805481E0
2.874351958E0,-9.471262904E-1,-3.162770641E-1,1.947436223E0,2.188512562E0
2.884405958E0,-7.963023327E-1,1.792159903E-1,1.499577072E0,1.707321637E0
2.894459958E0,-4.750520656E-1,2.490633202E-1,9.774733396E-1,1.114971359E0
2.904514958E0,-1.172745346E-1,1.515305936E-2,4.397454080E-1,4.553668362E-1
2.914568958E0,1.042210642E-1,-3.904741377E-1,1.253856459E-1,4.231473060E-1
2.924622958E0,2.246779458E-1,-6.271384370E-1,1.491803053E-1,6.826694383E-1
2.934677958E0,2.836294279E-1,-6.133811080E-1,3.497479883E-1,7.609242350E-1
2.944731958E0,3.249218801E-1,-4.643852824E-1,5.512952261E-1,7.906670253E-1
2.954785958E0,4.985205965E-1,-3.105783677E-1,5.586850834E-1,8.106236673E-1
2.964840958E0,6.345636700E-1,-3.105859691E-1,5.268985958E-1,8.813380882E-1
2.974894958E0,7.038999532E-1,-3.677091730E-1,4.865962234E-1,9.313758987E-1
2.984948958E0,6.969308031E-1,-3.483168823E-1,4.490228927E-1,8.992545540E-1
2.995003958E0,6.102585487E-1,-2.413444108E-1,4.567821479E-1,7.995702293E-1
3.005057958E0,5.746389189E-1,-1.563311577E-1,4.404345024E-1,7.406968806E-1
3.015111958E0,5.508553693E-1,-1.996525937E-1,3.732206123E-1,6.946916017E-1
3.025166958E0,4.974564032E-1,-2.194682229E-1,3.355681980E-1,6.389328521E-1
3.035220958E0,4.212934957E-1,-1.186411750E-1,3.584847517E-1,5.657519379E-1
3.045274958E0,6.665657736E-1,8.625303823E-1,-8.907502145E-3,1.090113726E0
3.055329958E0,9.918544203E-1,1.746521800E0,-1.856115286E-1,2.017068474E0
3.065383958E0,-1.557084292E-1,7.917217702E-1,-1.148204581E-1,8.150166955E-1
3.075437958E0,-8.439954396E-1,4.143921733E-3,-8.787210301E-2,8.485676052E-1
3.085492958E0,-3.793179426E-1,7.498644769E-2,-2.318646124E-1,4.508506043E-1
3.095546958E0,-2.039929819E-1,-2.433190155E-1,-2.147505431E-1,3.833211131E-1
3.105600958E0,-3.997184394E-1,-5.465684831E-1,1.104691064E-1,6.860869923E-1
3.115655958E0,-5.519965996E-1,-1.512721467E-1,4.124356949E-1,7.054691423E-1
3.125709958E0,-6.089417557E-1,3.053199667E-1,6.727617757E-1,9.574125290E-1
3.135763958E0,-5.645399004E-1,7.551152766E-1,4.528797892E-1,1.045946693E0
3.145818958E0,-4.418556681E-1,8.025332719E-1,-4.941591583E-2,9.174628149E-1
3.155872958E0,-1.828697692E-1,5.645691365E-1,-5.784147584E-1,8.286997618E-1
3.165926958E0,7.214002311E-2,4.519962019E-1,-9.540281975E-1,1.058146753E0
3.175981958E0,-2.778275281E-2,1.657621318E-1,-9.835929624E-1,9.978497289E-1
3.186035958E0,-8.636469081E-2,-8.057404697E-2,-7.971438932E-1,8.058470223E-1
3.196089958E0,-1.123121488E-1,-2.189922595E-1,-5.483601431E-1,6.010577967E-1
3.206144958E0,-2.879471581E-1,-3.097936714E-1,-2.174415779E-1,4.755696841E-1
3.216198958E0,-3.100696599E-1,-1.522872233E-1,2.760540676E-1,4.421995485E-1
3.226252958E0,-1.106942242E-1,1.171413642E-1,7.515296908E-1,7.686170612E-1
3.236307958E0,2.007851994E-1,2.603326589E-1,1.082551021E0,1.131372840E0
3.246361958E0,4.364076711E-1,2.642035156E-1,1.078728257E0,1.193276919E0
3.256415958E0,3.395864046E-1,-4.081882775E-2,1.033205345E0,1.088346630E0
3.266470958E0,3.998782146E-1,-1.359705681E-1,9.758909369E-1,1.063369034E0
3.276524958E0,3.932293457E-1,-2.041105109E-1,1.013115481E0,1.105754673E0
3.286578958E0,2.801639293E-1,-2.767089558E-1,1.110443555E0,1.178195469E0
3.296633958E0,3.901521023E-1,-1.972528964E-1,1.034442616E0,1.123031118E0
3.306687958E0,3.707687286E-1,-2.695724291E-1,8.600926781E-1,9.746271900E-1
3.316741958E0,3.730577673E-1,-2.335319459E-1,5.443886411E-1,7.000487555E-1
3.326796958E0,2.050903581E-1,-2.035661352E-1,3.103339541E-1,4.240381934E-1
3.336850958E0,9.879455566E-2,-7.952096343E-2,1.377849591E-1,1.872662351E-1
3.346904958E0,3.497658223E-3,-1.171969128E-1,1.609855413E-2,1.183491167E-1
3.356959958E0,1.384326844E-1,7.222012997E-2,6.839723865E-2,1.704627160E-1
3.367013958E0,1.028311810E-1,7.852167428E-2,2.551724545E-1,2.860994349E-1
3.377067958E0,1.096021105E-1,1.541787976E-1,3.796257985E-1,4.241455777E-1
3.387122958E0,9.671513960E-2,1.338111913E-1,4.675971214E-1,4.958894243E-1
3.397176958E0,2.964377537E-2,3.652463257E-2,5.225527990E-1,5.246658269E-1
3.407230958E0,1.660372433E-1,1.485941219E-1,5.111823034E-1,5.576342229E-1
3.417285958E0,1.631491573E-1,8.511324048E-2,4.785080989E-1,5.126713489E-1
3.427339958E0,1.941562110E-1,8.404670835E-2,4.504402578E-1,4.976513933E-1
3.437393958E0,3.014035016E-1,1.274710554E-1,4.253978026E-1,5.367087024E-1
3.447447958E0,3.174887533E-1,1.237218207E-1,4.182209301E-1,5.394580093E-1
3.457502958E0,2.756719521E-1,5.383999228E-2,3.412645555E-1,4.419901206E-1
3.467556958E0,2.193498167E-1,-5.477963984E-2,2.679393200E-1,3.505804191E-1
3.477610958E0,1.436147793E-1,-1.538285494E-2,2.921175567E-1,3.258749822E-1
3.487665958E0,6.751107484E-2,5.265066862E-2,3.344888020E-1,3.452717723E-1
3.497719958E0,6.631897375E-2,1.208373892E-1,4.071042037E-1,4.298066002E-1
3.507773958E0,7.516581103E-2,1.090312761E-1,4.391095233E-1,4.586446247E-1
3.517828958E0,6.134050816E-2,1.055264550E-1,4.013669157E-1,4.195162591E-1
3.527882958E0,7.614317313E-2,1.039412749E-1,3.156900036E-1,3.409717728E-1
3.537936958E0,9.744881898E-2,7.128866851E-2,2.220456755E-1,2.527501308E-1
3.547991958E0,1.068961653E-1,2.319415033E-2,1.816425848E-1,2.120348730E-1
3.558045958E0,1.408695115E-1,1.896602869E-2,2.095033979E-1,2.531710949E-1
3.568099958E0,1.141763873E-1,1.476597369E-2,2.829233583E-1,3.054503365E-1
3.578154958E0,9.648914471E-2,1.833979189E-2,3.352033317E-1,3.492961159E-1
3.588208958E0,7.642179295E-2,1.555359364E-4,3.585477555E-1,3.666017016E-1
3.598262958E0,4.595180601E-2,-4.676310718E-2,3.506645393E-1,3.567407684E-1
3.608317958E0,1.461277664E-2,-7.242361307E-2,3.351425207E-1,3.431897757E-1
3.618371958E0,4.938426778E-2,-2.418993115E-3,3.252747595E-1,3.290111345E-1
3.628425958E0,6.154179856E-2,5.686183333E-2,2.995598563E-1,3.110575004E-1
3.638480958E0,7.701762423E-2,1.214577788E-1,2.658319469E-1,3.022421719E-1
3.648534958E0,1.199829648E-1,1.540045506E-1,2.301101553E-1,3.017681180E-1
3.658588958E0,1.433389369E-1,1.051118875E-1,2.044163386E-1,2.708885365E-1
3.668643958E0,9.805152074E-2,1.301648676E-2,2.108833408E-1,2.329276993E-1
3.678697958E0,7.747209907E-2,-9.009565294E-2,2.525517507E-1,2.791084728E-1
3.688751958E0,1.234959720E-1,-6.461991906E-2,2.899575770E-1,3.217178663E-1
3.698806958E0,1.313199851E-1,-4.377810359E-3,3.112882197E-1,3.378823159E-1
3.708860958E0,9.604168653E-2,2.801167130E-2,3.491711605E-1,3.632205371E-1
3.718914958E0,1.042785130E-1,6.223659396E-2,3.561667693E-1,3.763006370E-1
3.728969958E0,1.456811853E-1,1.207754087E-1,3.186943030E-1,3.706423693E-1
3.739023958E0,1.585476910E-1,9.576569796E-2,2.824427537E-1,3.377607857E-1
3.749077958E0,1.270339760E-1,-1.917886734E-4,3.213547862E-1,3.455525523E-1
3.759132958E0,1.191966605E-1,-3.375773013E-2,3.389432108E-1,3.608738400E-1
3.769186958E0,1.422493082E-1,9.004712105E-5,3.399664736E-1,3.685269013E-1
3.779240958E0,2.483691095E-1,8.452325642E-2,2.714944271E-1,3.775455196E-1
3.789294958E0,3.770791899E-1,1.496817040E-1,2.648648357E-1,4.845066658E-1
3.799349958E0,3.922394121E-1,1.463903064E-1,3.917611098E-1,5.733747861E-1
3.809403958E0,3.393199177E-1,1.194831741E-1,6.699821556E-1,7.604540250E-1
3.819457958E0,3.882445943E-1,-1.120034158E-2,9.638678920E-1,1.039182672E0
3.829512958E0,4.826769809E-1,-2.307960337E-1,1.101537076E0,1.224592915E0
3.839566958E0,7.015831402E-1,-2.421121502E-1,1.153102502E0,1.371306886E0
3.849620958E0,8.397372048E-1,-3.504938006E-1,1.224145002E0,1.525298484E0
3.859675958E0,1.104832567E0,-3.885515732E-1,1.125597199E0,1.624375690E0
3.869729958E0,1.191795574E0,-4.885676122E-1,7.317416167E-1,1.481391507E0
3.879783958E0,1.079633553E0,-4.192430234E-1,8.060971498E-2,1.160978573E0
3.889838958E0,7.767682470E-1,-3.245432729E-1,-4.566722202E-1,9.577300049E-1
3.899892958E0,5.990960678E-1,-1.664673060E-1,-8.050785649E-1,1.017240856E0
3.909946958E0,6.247820091E-1,-1.188259470E-1,-9.546012247E-1,1.147055213E0
3.920001958E0,5.290079789E-1,-5.800496399E-2,-8.041447645E-1,9.642939489E-1
3.930055958E0,4.590539373E-1,1.815466905E-1,-5.745053101E-1,7.574602759E-1
3.940109958E0,9.959983420E-1,4.145880550E-1,-4.669960642E-1,1.175576997E0
3.950164958E0,9.695341364E-1,2.642315823E-1,-2.511858594E-1,1.035813259E0
3.960218958E0,5.234098546E-1,1.006066078E-1,-3.896293064E-2,5.344133937E-1
3.970272958E0,3.804772992E-1,-8.728606582E-2,1.134979550E-1,4.065262824E-1
3.980327958E0,3.332043149E-1,-2.246792614E-1,2.975016546E-1,5.000131203E-1
3.990381958E0,1.020388833E-1,-1.054726607E-1,3.224844682E-1,3.543058680E-1
4.000435958E0,-2.900715977E-2,1.925353628E-1,2.100249879E-1,2.863944427E-1
4.010490958E0,3.519253452E-1,5.429882330E-1,9.438109556E-2,6.539078383E-1
4.020544958E0,6.466219443E-1,6.879927492E-1,2.280343755E-1,9.713154165E-1
4.030598958E0,7.219285271E-1,6.562330127E-1,4.761095345E-1,1.085588713E0
4.040653958E0,6.488392085E-1,6.416132194E-1,8.520615274E-1,1.248466535E0
4.050707958E0,5.949508305E-1,5.302857417E-1,1.465084786E0,1.667825797E0
4.060761958E0,7.811108279E-1,4.481037104E-1,2.602608551E0,2.753997518E0
4.070815958E0,9.605851190E-1,2.625698036E-1,3.872346048E0,3.998340979E0
4.080870958E0,1.157336032E0,1.677057463E-1,4.811393679E0,4.951470594E0
4.090924958E0,1.425454405E0,3.832282680E-1,4.742149782E0,4.966565082E0
4.100978958E0,1.820546819E0,8.343269223E-1,3.257244689E0,3.823628525E0
4.111033958E0,2.066611249E0,1.248643667E0,9.453515142E-1,2.593006468E0
4.121087958E0,1.547188026E0,1.587096296E0,-7.337969130E-1,2.334764089E0
4.131141958E0,1.517734724E-1,1.839504808E0,-9.922801707E-1,2.095574638E0
4.141196958E0,-6.863287778E-1,1.981720203E0,1.875172824E-1,2.105569966E0
4.151250958E0,-1.551185913E-1,2.338391002E0,1.384860987E0,2.722126780E0
4.161304958E0,-1.095543388E0,2.274745229E0,2.346284158E0,3.446698496E0
4.171359958E0,-1.023533173E0,2.394615489E0,2.608098502E0,3.685645301E0
4.181413958E0,-6.555467688E-1,1.911662958E0,2.495082933E0,3.210862138E0
4.191467958E0,-7.565509142E-1,1.404463193E0,1.489510360E0,2.182550631E0
4.201522958E0,-7.719819356E-1,1.601450626E0,2.456064463E-1,1.794692938E0
4.211576958E0,-8.776020192E-1,2.204713712E0,-6.403532906E-1,2.457844623E0
4.221632125E0,-8.471209225E-1,2.804025834E0,-1.280493450E0,3.196848168E0
4.231687125E0,-8.482229034E-1,2.855735686E0,-9.086210597E-1,3.114530564E0
4.241741125E0,-6.562677305E-1,2.102476315E0,1.671232174E-1,2.208851322E0
4.251795125E0,-3.676795714E-1,8.388924283E-1,1.310900726E0,1.599184006E0
4.261849125E0,-1.097202060E-1,-5.402008653E-1,1.817976530E0,1.899708967E0
4.271904125E0,-9.877129471E-2,-1.668374348E0,2.508916860E0,3.014613167E0
4.281958125E0,5.813263064E-1,-2.096189974E0,1.956609335E0,2.925794383E0
4.292012125E0,1.116474373E0,-2.183999366E0,-6.563859174E-1,2.539135823E0
4.302067125E0,1.480170310E0,-2.071572611E0,-3.074361910E0,3.991743777E0
4.312121125E0,1.456419943E0,-2.617936442E0,-4.026832409E0,5.018976939E0
4.322175125E0,8.218061332E-1,-3.243673301E0,-3.309206848E0,4.706127045E0
4.332230125E0,1.552680791E-1,-3.071343577E0,-2.105861561E0,3.727185595E0
4.342284125E0,-3.076622151E-1,-2.746269377E0,-1.487667610E0,3.138440129E0
4.352338125E0,-4.916237691E-1,-3.068980717E0,-1.382575018E0,3.401742238E0
4.362393125E0,-5.025709262E-1,-3.795808918E0,-1.675479592E0,4.179470630E0
4.372447125E0,-7.293943982E-1,-4.619188684E0,-1.603179647E0,4.943592344E0
4.382501125E0,-4.660398252E-1,-4.847982631E0,-2.834823704E-1,4.878574685E0
4.392556125E0,-4.886358053E-1,-5.970052789E0,6.684881920E-1,6.027202645E0
4.402610125E0,-4.699720046E-1,-7.674127897E0,-2.624437961E-1,7.692983128E0
4.412664125E0,-7.241340968E-1,-9.105670715E0,-3.649215129E-1,9.141705370E0
4.422719125E0,-1.444160232E0,-1.128692247E1,6.477106959E-1,1.139735701E1
4.432773125E0,-2.449214596E0,-1.354894942E1,1.134915322E-1,1.376900733E1
4.442827125E0,-3.146865045E0,-1.535099463E1,-1.141948645E0,1.571177401E1
4.452881125E0,-3.984357065E0,-1.735102539E1,-6.602743158E-1,1.781485743E1
4.462936125E0,-5.046807259E0,-1.917228104E1,2.250701478E-1,1.982668102E1
4.472990125E0,-5.321687790E0,-2.027482968E1,5.139228934E-1,2.096790872E1
4.483044125E0,-4.055036746E0,-1.988582378E1,-3.994832352E-2,2.029509562E1
4.493099125E0,-2.363434042E0,-1.825833433E1,-5.346530271E-1,1.841842683E1
4.503153125E0,-3.324308744E-1,-1.595808998E1,-4.256580768E-1,1.596722678E1
4.513207125E0,8.887387723E-1,-1.339227328E1,3.920914775E-1,1.342745605E1
4.523262125E0,1.254974447E0,-9.786469050E0,2.770820081E0,1.024828675E1
4.533316125E0,7.618717343E-1,-5.762498853E0,4.846891540E0,7.568302265E0
4.543370125E0,-3.448503605E-1,-2.176005637E0,6.154482742E0,6.536939660E0
4.553425125E0,-1.057606506E0,8.919810534E-1,6.437023126E0,6.584028284E0
4.563479125E0,-1.163620912E0,3.995882512E0,5.455290821E0,6.861580620E0
4.573533125E0,-1.129927939E0,6.982328610E0,4.115321832E0,8.183246529E0
4.583588125E0,-1.563568123E0,9.340990739E0,3.139281206E0,9.977672061E0
4.593642125E0,-2.307734635E0,1.115554723E1,2.091317489E0,1.158211907E1
4.603696125E0,-3.215610175E0,1.253035861E1,8.900796119E-1,1.296696871E1
4.613750125E0,-4.135892044E0,1.326375382E1,-2.348229381E-1,1.389560759E1
4.623805125E0,-5.187262056E0,1.401255878E1,-6.615480586E-1,1.495650818E1
4.633859125E0,-6.593166588E0,1.461726028E1,-8.393677338E-1,1.605735601E1
4.643913125E0,-7.911165249E0,1.480741641E1,-1.237912856E0,1.683385115E1
4.653968125E0,-8.599005970E0,1.459893043E1,-8.698926115E-1,1.696550579E1
4.664022125E0,-8.369512112E0,1.411124692E1,1.068168990E-1,1.640693245E1
4.674076125E0,-7.493825494E0,1.370253005E1,1.221712561E0,1.566554601E1
4.684131125E0,-6.484945151E0,1.327355375E1,2.477037840E0,1.497923427E1
4.694185125E0,-5.469740460E0,1.313224058E1,3.845797935E0,1.473648415E1
4.704239125E0,-4.230985020E0,1.354499203E1,5.546446574E0,1.523584960E1
4.714294125E0,-3.349766059E0,1.396668854E1,6.178554559E0,1.563534003E1
4.724348125E0,-3.073164985E0,1.365227557E1,3.751253720E0,1.448795623E1
4.734402125E0,-3.124523711E0,1.298357630E1,1.022839985E0,1.339336042E1
4.744457125E0,-2.815685767E0,1.224771590E1,-3.969195235E-1,1.257347113E1
4.754511125E0,-1.998222799E0,1.162824667E1,-9.767352748E-1,1.183904670E1
4.764565125E0,-9.979033649E-1,1.115505139E1,-1.220435529E0,1.126589746E1
4.774619125E0,-2.078946827E-1,1.062996908E1,-1.337411417E0,1.071578892E1
4.784674125E0,2.017472126E-1,1.006355398E1,-1.437390618E0,1.016768963E1
4.794728125E0,3.908420737E-1,9.526914071E0,-1.441190139E0,9.643229659E0
4.804782125E0,4.342091180E-1,9.080673868E0,-1.368048488E0,9.193406992E0
4.814837125E0,3.858937944E-1,8.759476372E0,-1.210173665E0,8.851093753E0
4.824891125E0,3.416764187E-1,8.477981470E0,-8.796013284E-1,8.530334758E0
4.834945125E0,3.924423105E-1,8.277501495E0,-3.222412241E-1,8.293062244E0
4.845000125E0,4.229831218E-1,7.949562744E0,4.684824264E-1,7.974580762E0
4.855054125E0,2.636428042E-1,7.340812047E0,1.990047222E0,7.610342763E0
4.865108125E0,4.154615742E-2,6.354186206E0,5.105172411E0,8.151085436E0
4.875163125E0,-3.572219359E-1,5.436650482E0,6.639747262E0,8.589005744E0
4.885217125E0,-1.421307121E0,5.293585487E0,5.091407481E0,7.480948561E0
4.895271125E0,-2.479414734E0,5.616969257E0,4.560606015E0,7.648331078E0
4.905326125E0,-3.334819699E0,5.313545542E0,5.129918997E0,8.103755770E0
4.915380125E0,-3.836038932E0,4.686995920E0,4.225510272E0,7.384988998E0
4.925434125E0,-4.852885521E0,3.450602755E0,4.092392560E0,7.225291283E0
4.935488125E0,-6.713195307E0,1.395971866E0,5.856654228E0,9.017545533E0
4.945543125E0,-7.523925206E0,1.455295962E-1,5.440752304E0,9.286141018E0
4.955597125E0,-8.221900907E0,-2.725776055E0,7.257407947E0,1.130041945E1
4.965651125E0,-7.183873948E0,-7.313984436E0,8.106593814E0,1.306978487E1
4.975706125E0,-6.643818678E0,-9.141955612E0,3.782690398E0,1.191740012E1
4.985760125E0,-5.291500370E0,-1.210987832E1,1.349231563E0,1.328418439E1
4.995814125E0,-5.405252103E0,-1.759093197E1,-3.483560586E-1,1.840594985E1
5.005869125E0,-4.532995170E0,-2.524380991E1,4.878925511E-1,2.565221284E1
5.015923125E0,-2.981849602E0,-3.099725962E1,1.096092295E0,3.115963654E1
5.025977125E0,-3.818205509E0,-3.352629499E1,-6.551576512E0,3.437316255E1
5.036032125E0,-4.478816916E0,-3.229613905E1,-1.397071026E1,3.547225879E1
5.046086125E0,-2.172459301E0,-3.181347947E1,-1.301635813E1,3.444187327E1
5.056140125E0,4.349540241E0,-3.054609781E1,2.051725553E0,3.092235712E1
5.066195125E0,9.235918028E0,-2.711549663E1,1.038458717E1,3.046952559E1
5.076249125E0,1.002657619E1,-2.253050071E1,3.094460544E0,2.485420243E1
5.086303125E0,9.655172746E0,-1.879984497E1,-8.287164458E-1,2.115049179E1
5.096358125E0,9.889158436E0,-1.616335298E1,2.249196990E0,1.908162260E1
5.106412125E0,9.599307278E0,-1.336696887E1,3.676761362E0,1.686241771E1
5.116466125E0,8.249645360E0,-1.080009967E1,2.007366090E0,1.373784263E1
5.126520125E0,6.608693869E0,-8.745074680E0,5.891145784E-1,1.097716820E1
5.136575125E0,5.259169360E0,-6.749077331E0,1.323056502E0,8.657908852E0
5.146629125E0,4.124699011E0,-4.380981889E0,2.619712826E0,6.562700628E0
5.156683125E0,3.128742769E0,-1.847108527E0,3.205751184E0,4.845377373E0
5.166738125E0,2.392121213E0,4.922080886E-1,3.034616046E0,3.895305796E0
5.176792125E0,1.702785066E0,2.890944110E0,2.858417219E0,4.407673289E0
5.186846125E0,9.936943198E-1,5.164326353E0,2.795731559E0,5.955989425E0
5.196901125E0,4.472647081E-1,7.348422198E0,2.434235637E0,7.754022031E0
5.206955125E0,8.618503511E-2,8.856987464E0,1.514484987E0,8.985951234E0
5.217009125E0,-1.812431834E-1,9.968989302E0,5.956209214E-1,9.988411339E0
5.227066958E0,-3.923978351E-1,1.084164180E1,1.472095013E-2,1.084875060E1
5.237120958E0,-5.858343269E-1,1.138821613E1,-4.613757205E-1,1.141260426E1
5.247174958E0,-7.042557563E-1,1.181395073E1,-8.813367820E-1,1.186769407E1
5.257229958E0,-6.489008966E-1,1.224416898E1,-9.337418675E-1,1.229685408E1
5.267283958E0,-5.102460180E-1,1.226927108E1,-1.039801004E0,1.232382042E1
5.277337958E0,-4.931375036E-1,1.207305606E1,-1.239800338E0,1.214656215E1
5.287391958E0,-4.339807843E-1,1.193210425E1,-1.013012643E0,1.198288971E1
5.297446958E0,-4.956277596E-1,1.175587619E1,-4.513243568E-1,1.177497199E1
5.307500958E0,-5.909516639E-1,1.167679259E1,2.277513520E-1,1.169395484E1
5.317554958E0,-6.018723989E-1,1.175023596E1,9.822281492E-1,1.180656884E1
5.327609958E0,-6.021677564E-1,1.184475269E1,1.598518832E0,1.196729021E1
5.337663958E0,-5.957257693E-1,1.193957699E1,1.857496106E0,1.209787914E1
5.347717958E0,-5.417443109E-1,1.193100965E1,1.640762626E0,1.205547926E1
5.357772958E0,-4.401102012E-1,1.187239599E1,1.223393635E0,1.194337371E1
5.367826958E0,-2.435320003E-1,1.179724173E1,8.135868484E-1,1.182777003E1
5.377880958E0,2.212798364E-2,1.169605449E1,4.760691156E-1,1.170576021E1
5.387935958E0,3.399894239E-1,1.153084726E1,2.268818710E-1,1.153808939E1
5.397989958E0,6.499986383E-1,1.125195145E1,-1.214693271E-2,1.127071680E1
5.408043958E0,9.499036447E-1,1.082329674E1,-3.170342785E-1,1.086952529E1
5.418098958E0,1.140019284E0,1.017079893E1,-6.600448126E-1,1.025575224E1
5.428152958E0,1.126391397E0,9.472758329E0,-8.151059550E-1,9.574252224E0
5.438206958E0,1.103474186E0,9.037215607E0,-5.328754735E-1,9.119916528E0
5.448260958E0,1.052071094E0,8.649055213E0,2.516553909E-1,8.716440793E0
5.458315958E0,1.068067614E0,8.249704417E0,1.206322104E0,8.405569845E0
5.468369958E0,1.016868663E0,7.884395526E0,1.590773025E0,8.107297546E0
5.478423958E0,1.002008403E0,7.867929182E0,1.763439549E0,8.125149198E0
5.488478958E0,8.765510552E-1,7.948378099E0,2.291982236E0,8.318547873E0
5.498532958E0,6.493509860E-1,7.654262567E0,2.849651658E0,8.193284245E0
5.508586958E0,2.131775690E-1,7.354402730E0,2.570619019E0,7.793636271E0
5.518641958E0,-2.271189391E-1,6.518676569E0,2.743946278E0,7.076296235E0
5.528695958E0,-9.816880857E-1,5.021737906E0,3.570469799E0,6.239376386E0
5.538749958E0,-2.259512940E0,4.200080731E0,1.175012603E0,4.911896934E0
5.548804958E0,-3.019617938E0,4.514397808E0,-2.375450216E0,5.927954436E0
5.558858958E0,-3.623058195E0,2.904753479E0,-3.302533713E-1,4.655449575E0
5.568912958E0,-3.238551433E0,1.277308472E0,2.311255243E-1,3.489004346E0
5.578967958E0,-2.033581205E0,1.895597148E0,-5.031402769E0,5.748369759E0
5.589021958E0,-1.099030813E0,7.417719305E-2,-4.065134010E0,4.211731889E0
5.599075958E0,1.239847700E0,-1.124702341E1,1.347532713E1,1.759594269E1
5.609129958E0,2.763427446E0,-2.539474760E1,1.896418916E1,3.181462254E1
5.619184958E0,4.267963689E0,-2.736800513E1,-4.086074351E0,2.799855750E1
5.629238958E0,5.783087484E0,-3.075644321E1,-1.236652080E1,3.365016696E1
5.639292958E0,6.185501636E0,-3.730261163E1,2.678360107E0,3.790671283E1
5.649347958E0,6.849481040E0,-4.342964696E1,1.396671778E1,4.613153836E1
5.659401958E0,6.362384588E0,-4.088610347E1,-9.767701242E0,4.251542523E1
5.669455958E0,7.451168886E0,-3.997041547E1,-5.231127284E0,4.099413035E1
5.679510958E0,9.401661449E0,-3.661318748E1,4.520616615E0,3.807036525E1
5.689564958E0,8.913857483E0,-2.791840588E1,-9.952003433E-1,2.932379010E1
5.699618958E0,7.070423931E0,-1.966334892E1,-4.461523191E0,2.136687564E1
5.709673958E0,5.535757864E0,-1.472205642E1,-3.189743847E0,1.604861446E1
5.719727958E0,4.690229430E0,-1.082363822E1,-1.449852204E0,1.188492608E1
5.729781958E0,3.991993529E0,-8.005927565E0,-8.471989828E-1,8.986024406E0
5.739836958E0,3.214892429E0,-5.749396412E0,-2.121263127E-1,6.590606194E0
5.749890958E0,2.516304232E0,-3.377726567E0,7.558624776E-1,4.279270012E0
5.759944958E0,1.937211782E0,-1.063527836E0,1.317903936E0,2.573082146E0
5.769998958E0,1.585850839E0,1.551888456E0,1.402703181E0,2.625044167E0
5.780053958E0,1.318666705E0,4.389503036E0,1.861499695E0,4.946898008E0
5.790107958E0,1.027591287E0,7.299423115E0,2.710325958E0,7.853877289E0
5.800161958E0,6.733728097E-1,9.911225828E0,3.461763335E0,1.051996358E1
5.810216958E0,8.459334992E-2,1.169128901E1,3.330937732E0,1.215683104E1
5.820270958E0,-5.137035497E-1,1.264319116E1,3.007445204E0,1.300611013E1
5.830324958E0,-8.160978620E-1,1.328599897E1,3.312764586E0,1.371707671E1
5.840379958E0,-8.197138533E-1,1.377228149E1,4.194081488E0,1.442005505E1
5.850433958E0,-6.367151530E-1,1.453024085E1,5.514339513E0,1.555446063E1
5.860487958E0,-4.125038150E-1,1.487173345E1,5.571052827E0,1.588632257E1
5.870542958E0,-4.219833210E-2,1.451862711E1,4.576743160E0,1.522297250E1
5.880596958E0,5.800076131E-1,1.398088091E1,3.565787641E0,1.444009284E1
5.890650958E0,1.307375147E0,1.336310971E1,2.703639082E0,1.369640811E1
5.900705958E0,1.736701401E0,1.243287383E1,1.967597423E0,1.270684552E1
5.910759958E0,1.458012578E0,1.052563838E1,1.271095805E0,1.070189463E1
5.920813958E0,7.410264105E-1,9.020196117E0,2.554929185E-1,9.054188796E0
5.930867958E0,1.562664729E-1,8.622035814E0,-5.464527082E-1,8.640748310E0
5.940922958E0,-3.267166829E-1,8.788999549E0,-1.057850189E0,8.858459453E0
5.950976958E0,-4.934983499E-1,9.059490575E0,-1.378857651E0,9.177099679E0
5.961030958E0,-3.998092175E-1,9.303378525E0,-1.413073218E0,9.418570768E0
5.971085958E0,-2.522386872E-1,9.620271301E0,-1.160140210E0,9.693253817E0
5.981139958E0,-2.492299658E-1,9.982308090E0,-6.495590007E-1,1.000652374E1
5.991193958E0,-6.818178702E-2,1.036770977E1,-5.932883209E-1,1.038489507E1
6.001248958E0,6.074084331E-1,1.050260269E1,-1.079876066E0,1.057543099E1
6.011302958E0,1.134631440E0,1.003837587E1,-1.899873217E0,1.027939185E1
6.021356958E0,1.184928750E0,9.562713064E0,-2.687970883E0,1.000373554E1
6.031411958E0,1.199308808E0,9.393718007E0,-3.107677006E0,9.966841826E0
6.041465958E0,1.193090586E0,9.309184225E0,-2.985897630E0,9.848855809E0
6.051519958E0,1.140119783E0,9.164630529E0,-2.493431679E0,9.565956690E0
6.061574958E0,1.053815245E0,9.010505526E0,-1.939120313E0,9.276848818E0
6.071628958E0,9.825113006E-1,8.775615857E0,-1.395166120E0,8.939980460E0
6.081682958E0,8.950770079E-1,8.620338952E0,-8.673438102E-1,8.709976566E0
6.091736958E0,1.125278087E0,8.511004790E0,4.856796724E-1,8.598798640E0
6.101791958E0,1.813150969E0,8.465394169E0,2.404193813E0,8.985018796E0
6.111845958E0,1.961920361E0,8.521819215E0,1.711670056E0,8.910687326E0
6.121899958E0,1.513513765E0,8.402749439E0,5.666952572E-1,8.556755552E0
6.131954958E0,6.636565646E-1,7.954103107E0,5.927112738E-1,8.003718069E0
6.142008958E0,-2.964008615E-1,7.346915370E0,9.108757460E-1,7.409096676E0
6.152062958E0,-1.214961658E0,6.517083787E0,4.533913475E-1,6.644853395E0
6.162117958E0,-2.221358688E0,5.871638888E0,-1.429206417E-1,6.279411115E0
6.172171958E0,-3.750389794E0,3.679910088E0,4.772586878E0,7.098221423E0
6.182225958E0,-4.505854734E0,-1.136248487E-1,1.095397032E1,1.184504552E1
6.192280958E0,-2.288482093E0,-1.150088262E0,-1.800347467E-1,2.567540810E0
6.202334958E0,-4.066767722E-2,-2.771445733E0,-1.117871858E1,1.151721817E1
6.212388958E0,1.161539011E0,-1.067257424E1,-1.387717352E0,1.082491446E1
6.222443708E0,1.686727150E0,-2.990125284E1,3.378538044E1,4.514844295E1
6.232497708E0,2.272157105E0,-3.308060618E1,-3.325037892E0,3.332484179E1
6.242551708E0,4.266039662E0,-3.673871551E1,-1.540883295E1,4.006699945E1
6.252606708E0,4.598580172E0,-4.551610658E1,9.347532020E0,4.669303217E1
6.262660708E0,3.095325347E0,-5.026257687E1,8.835459185E0,5.112702819E1
6.272714708E0,2.146232200E0,-5.208155210E1,-6.000836626E0,5.247003357E1
6.282769708E0,1.684166069E0,-5.207866124E1,3.692103871E0,5.223652939E1
6.292823708E0,4.174156516E0,-3.877885817E1,3.548653545E0,3.916396769E1
6.302877708E0,5.506401917E0,-2.256285686E1,-8.593799025E-1,2.324094459E1
6.312931708E0,4.802326109E0,-1.520301797E1,5.763183855E-2,1.594356964E1
6.322986708E0,4.020183248E0,-1.158399143E1,-6.992889120E-1,1.228168294E1
6.333040708E0,3.324458433E0,-8.770104856E0,-1.785796378E0,9.547556324E0
6.343094708E0,2.971176680E0,-5.990252581E0,-1.658037640E0,6.889129528E0
6.353149708E0,3.111677086E0,-3.433904861E0,-1.043878267E0,4.750149336E0
6.363203708E0,3.418839510E0,-8.191656768E-2,2.561501090E-1,3.429400355E0
6.373257708E0,3.664649439E0,3.035600132E0,1.566515851E0,5.009839877E0
6.383312708E0,3.765341124E0,5.723261697E0,2.204143023E0,7.196649547E0
6.393366708E0,3.664857893E0,7.784196469E0,2.294291886E0,8.904418752E0
6.403420708E0,3.250504603E0,9.492016718E0,2.402343754E0,1.031675419E1
6.413475708E0,2.755671115E0,1.129715042E1,2.510469296E0,1.189629300E1
6.423529708E0,2.650064261E0,1.273143968E1,2.972373605E0,1.333969271E1
6.433583708E0,3.105218836E0,1.329192454E1,3.097733231E0,1.399691370E1
6.443638708E0,3.401713893E0,1.315438984E1,2.166655354E0,1.375877992E1
6.453692708E0,3.463551122E0,1.282003903E1,1.385033480E0,1.335170045E1
6.463746708E0,3.642856574E0,1.257274157E1,1.213333501E0,1.314596565E1
6.473801708E0,3.810360592E0,1.253806758E1,1.319214882E0,1.317050927E1
6.483855708E0,3.802484100E0,1.271338348E1,1.181026465E0,1.332230567E1
6.493909708E0,3.645503024E0,1.265494874E1,8.552745724E-1,1.319730710E1
6.503964708E0,3.402083144E0,1.240347403E1,4.264175570E-1,1.286865065E1
6.514018708E0,3.099077798E0,1.215878560E1,6.564201236E-2,1.254769538E1
6.524072708E0,2.856057867E0,1.211216575E1,2.406351435E-1,1.244666746E1
6.534127708E0,2.654972121E0,1.221137429E1,6.300854337E-1,1.251253558E1
6.544181708E0,2.495209817E0,1.230663244E1,4.927337533E-1,1.256670445E1
6.554235708E0,2.433229624E0,1.228509598E1,-1.468656667E-1,1.252460615E1
6.564289708E0,2.491223186E0,1.217487363E1,-8.040669966E-1,1.245312268E1
6.574344708E0,2.607419347E0,1.202582342E1,-1.217499057E0,1.236532929E1
6.584398708E0,2.735425131E0,1.188311862E1,-1.309258828E0,1.226398049E1
6.594452708E0,2.886716573E0,1.175991193E1,-1.235557598E0,1.217190469E1
6.604507708E0,3.100352198E0,1.161061030E1,-1.014498348E0,1.206016841E1
6.614561708E0,3.260152509E0,1.108789027E1,-7.603058499E-1,1.158222647E1
6.624615708E0,3.298568131E0,1.034907469E1,-7.670371646E-1,1.088908833E1
6.634670708E0,3.164710747E0,9.759463685E0,-7.074978912E-1,1.028411779E1
6.644724708E0,3.101582453E0,9.296270065E0,-5.055344778E-1,9.813053344E0
6.654778708E0,3.153585250E0,8.961755535E0,-1.878540820E-1,9.502286638E0
6.664833708E0,3.223247808E0,8.623592927E0,3.673606789E-1,9.213611413E0
6.674887708E0,3.294161670E0,8.413715308E0,9.626639503E-1,9.086739144E0
6.684941708E0,3.387911248E0,8.291293908E0,1.295817248E0,9.050007714E0
6.694996708E0,3.334146100E0,8.221056569E0,1.199141139E0,8.952108176E0
6.705050708E0,3.198945025E0,8.099871855E0,7.138245785E-1,8.737889841E0
6.715104708E0,3.001644474E0,8.080078445E0,1.378207002E-3,8.619602028E0
6.725159708E0,2.936788620E0,8.313258973E0,-7.638884389E-1,8.849775574E0
6.735213708E0,2.875122129E0,8.576967815E0,-1.152762194E0,9.119186632E0
6.745267708E0,2.686402659E0,8.575938705E0,-1.119466978E0,9.056306655E0
6.755322708E0,2.347138583E0,8.436001970E0,-1.074222393E0,8.822082663E0
6.765376708E0,2.036672043E0,8.105137272E0,-2.978442284E-1,8.362415584E0
6.775430708E0,-1.026415850E-1,5.355507501E0,1.084966769E1,1.209988780E1
6.785485708E0,-4.886662839E0,1.843870924E0,2.394558303E1,2.450857565E1
6.795539708E0,-1.915220111E0,5.137104641E0,8.028659054E-1,5.540984193E0
6.805593708E0,-1.075559779E-1,5.564608026E0,-1.164882770E1,1.291013623E1
6.815648708E0,-8.214163067E-2,2.621486287E0,-1.014599037E1,1.047950658E1
6.825702708E0,2.011685136E0,-2.337143791E0,-6.357688689E0,7.066068472E0
6.835756708E0,7.825401798E0,-1.488121997E1,-2.285900547E0,1.696799818E1
6.845810708E0,1.363939182E1,-3.361628364E1,-4.848331710E0,3.660046250E1
6.855865708E0,1.268463389E1,-5.301782699E1,1.207805543E1,5.583609351E1
6.865919708E0,1.041427115E1,-5.558881496E1,-2.712108774E0,5.662092305E1
6.875973708E0,3.434845386E0,-5.778572615E1,2.828438544E-1,5.788841257E1
6.886028708E0,-1.040536701E1,-6.479795508E1,1.307532028E1,6.691793964E1
6.896082708E0,-2.163667661E1,-6.203064567E1,1.344456961E1,6.705746214E1
6.906136708E0,-2.017651694E1,-4.250390174E1,-1.355676949E0,4.706921881E1
6.916191708E0,-6.279897916E0,-2.363851065E1,-1.452467664E1,2.844613392E1
6.926245708E0,2.390099099E-1,-1.336142103E1,-9.480426368E0,1.638484610E1
6.936299708E0,9.013795754E-1,-4.923539182E0,6.828946788E0,8.466890660E0
6.946354708E0,4.987847444E-1,-3.549223064E0,5.554825049E0,6.610737622E0
6.956408708E0,8.042614165E-1,-3.990115403E0,-3.522659748E0,5.383027870E0
6.966462708E0,1.923871359E0,-1.403664463E0,-3.236798730E0,4.018509792E0
6.976517708E0,2.990437700E0,2.536039755E0,-2.721881810E0,4.773138995E0
6.986571708E0,2.666867697E0,5.066927528E0,-2.187728720E0,6.129608049E0
6.996625708E0,2.570220823E0,6.933606101E0,-1.588959219E0,7.563446308E0
7.006680708E0,2.847571511E0,8.744392895E0,-9.667365360E-1,9.247034667E0
7.016734708E0,2.907154638E0,1.056878382E1,1.087639999E0,1.101515775E1
7.026788708E0,2.895043593E0,1.261648810E1,4.168768891E0,1.359910598E1
7.036843708E0,2.970789594E0,1.358668385E1,4.690158094E0,1.467723243E1
7.046897708E0,2.857236374E0,1.400081406E1,4.063831251E0,1.485601961E1
7.056951708E0,2.486980738E0,1.438041647E1,2.947169766E0,1.488849424E1
7.067006708E0,2.148447710E0,1.475223741E1,1.336279396E0,1.496763103E1
7.077060708E0,1.890779627E0,1.516293297E1,-1.241363883E-1,1.528087019E1
7.087114708E0,1.756281680E0,1.506389634E1,-1.557058564E0,1.524565281E1
7.097169708E0,1.325516426E0,1.460098046E1,-2.312838085E0,1.484233285E1
7.107223708E0,1.044282602E0,1.452870303E1,-2.405480200E0,1.476347090E1
7.117277708E0,1.122815679E0,1.437174505E1,-2.214183277E0,1.458459387E1
7.127332708E0,1.444244725E0,1.397167388E1,-2.078410345E0,1.419905995E1
7.137386708E0,1.318669336E0,1.337050059E1,-1.512193463E0,1.352020354E1
7.147440708E0,1.064541743E0,1.272533519E1,-2.691847587E-1,1.277262170E1
7.157495708E0,5.603866231E-1,1.174653000E1,1.429290470E0,1.184642863E1
7.167549708E0,4.422933322E-1,1.105079086E1,2.340717609E0,1.130462564E1
7.177603708E0,6.982426259E-1,1.058176230E1,2.674807631E0,1.093690230E1
7.187658708E0,1.066164053E0,1.012350548E1,2.815918486E0,1.056179275E1
7.197712708E0,1.624950001E0,9.537836085E0,2.717318058E0,1.004960681E1
7.207766708E0,2.572293661E0,9.553810093E0,2.259464700E0,1.014875178E1
7.217821708E0,3.898458543E0,1.030396342E1,1.313672891E0,1.109483563E1
7.227875583E0,5.331873640E0,1.129799359E1,6.982183599E-1,1.251243560E1
7.237929583E0,6.481940852E0,1.181066810E1,-3.849800938E-1,1.347796899E1
7.247984583E0,7.399035112E0,1.187655453E1,-1.373025638E0,1.405999529E1
7.258038583E0,7.532200770E0,1.134600040E1,-1.651478818E0,1.371835106E1
7.268092583E0,7.337935216E0,1.076745584E1,-1.565474462E0,1.312379932E1
7.278147583E0,7.027934554E0,1.014476245E1,-1.775507033E0,1.246837979E1
7.288201583E0,6.744921715E0,9.298345826E0,-1.229163668E0,1.155266408E1
7.298255583E0,6.230527536E0,8.090306979E0,-9.034480280E-1,1.025128083E1
7.308310583E0,5.660525751E0,6.781211289E0,-1.393226599E0,8.942452610E0
7.318364583E0,5.503680623E0,5.876183344E0,-1.246379625E0,8.146992897E0
7.328418583E0,6.256578636E0,5.130594351E0,-1.054433661E0,8.159632649E0
7.338472583E0,6.577007807E0,5.032676877E0,-2.579121455E0,8.673911213E0
7.348527583E0,5.543360413E0,3.610323544E0,2.219274887E-1,6.619103608E0
7.358581583E0,3.124510555E0,-3.308670366E-1,1.906808248E1,1.932521174E1
7.368635583E0,-4.887336000E-1,1.753819710E-1,1.662464918E1,1.663275622E1
7.378690583E0,6.195198074E-2,3.474620778E0,-7.830702299E0,8.567188926E0
7.388744583E0,-5.502055974E-1,4.521090531E-1,-1.498349245E1,1.500040582E1
7.398798583E0,-2.989935425E0,-8.971685861E0,-6.518658442E0,1.148580728E1
7.408853583E0,-3.443955933E0,-1.983241765E1,-1.123681724E0,2.016056256E1
7.418907583E0,-4.533228474E0,-3.123032028E1,7.491695938E0,3.243468164E1
7.428961583E0,-8.073437762E0,-4.122348314E1,4.583151709E0,4.225590182E1
7.439016583E0,-1.340665626E1,-4.521953113E1,-3.793672346E0,4.731740036E1
7.449070583E0,-1.718135556E1,-4.413287521E1,-4.093715200E0,4.753596699E1
7.459124583E0,-1.930174658E1,-4.126821200E1,2.134599749E0,4.560898221E1
7.469179583E0,-1.380385528E1,-3.462705205E1,2.689692303E0,3.737396954E1
7.479233583E0,-9.885829031E0,-2.703551841E1,-5.098772049E-1,2.879077710E1
7.489287583E0,-8.982576885E0,-2.436898225E1,-3.394226825E-1,2.597400992E1
7.499342583E0,-7.317642455E0,-2.312406794E1,-4.452830136E-2,2.425432728E1
7.509396583E0,-5.295479985E0,-2.054672755E1,-6.431907982E-1,2.122790182E1
7.519450583E0,-3.711535046E0,-1.678235326E1,-1.330598826E0,1.723929716E1
7.529505583E0,-1.872541869E0,-1.249217395E1,-1.920651882E0,1.277692165E1
7.539559583E0,6.283818474E-1,-6.458706940E0,-1.931336499E0,6.770511041E0
7.549613583E0,3.309916407E0,1.251241000E0,-1.606011454E0,3.885926331E0
7.559668583E0,3.767492315E0,2.106645380E0,-6.481814698E-1,4.364870252E0
7.569722583E0,4.746281132E0,7.798273641E-1,-1.366864427E0,5.000363353E0
7.579776583E0,6.407502873E0,3.705510952E0,-1.829801939E0,7.624636360E0
7.589831583E0,6.801880027E0,6.134594607E0,-1.593821763E0,9.297262539E0
7.599885583E0,6.692354661E0,7.729717376E0,-1.020097057E0,1.027505424E1
7.609939583E0,6.361667719E0,9.370101103E0,-3.196141431E-1,1.133012639E1
7.619994583E0,5.527902714E0,1.031780378E1,4.771655416E-1,1.171505315E1
7.630048583E0,4.515222850E0,1.032737567E1,9.217696935E-1,1.130891618E1
7.640102583E0,3.897853357E0,1.044588587E1,1.426781430E0,1.124035131E1
7.650157583E0,3.448798304E0,1.079832913E1,2.084048231E0,1.152568344E1
7.660211583E0,3.349062054E0,1.146554673E1,2.229345108E0,1.215092416E1
7.670265583E0,3.419564272E0,1.199704927E1,1.491132377E0,1.256368126E1
7.680320583E0,3.649413642E0,1.190161570E1,4.186173713E-1,1.245559780E1
7.690374583E0,4.367147961E0,1.057627176E1,-2.011196236E-1,1.144421054E1
7.700428583E0,4.407673844E0,8.908131890E0,-2.371057642E-1,9.941761495E0
7.710483583E0,4.050228873E0,8.106604924E0,-3.453394435E-1,9.068663443E0
7.720537583E0,3.648544746E0,7.604612104E0,-5.288205025E-1,8.451133364E0
7.730591583E0,3.186384914E0,7.531890868E0,-8.813818055E-1,8.225525075E0
7.740646583E0,2.803690204E0,8.254710803E0,-9.975063390E-1,8.774733506E0
7.750700583E0,2.699184673E0,9.159774417E0,-8.374218535E-1,9.585840632E0
7.760754583E0,2.526003009E0,9.515868680E0,-1.057657816E0,9.902074934E0
7.770809583E0,2.590092586E0,9.460323640E0,-1.446914563E0,9.914628825E0
7.780863583E0,2.778141088E0,9.257517058E0,-1.698995631E0,9.813576114E0
7.790917583E0,3.132455459E0,9.004012778E0,-1.705586613E0,9.684706965E0
7.800972583E0,3.629064747E0,8.767763631E0,-1.538880740E0,9.613113125E0
7.811026583E0,4.151865468E0,8.706802899E0,-1.329496041E0,9.737246187E0
7.821080583E0,4.406005925E0,8.634864605E0,-1.181343384E0,9.765723074E0
7.831135583E0,4.379773854E0,8.443272398E0,-1.093394828E0,9.574276999E0
7.841189583E0,4.533437220E0,8.313160155E0,-9.635878104E-1,9.517835167E0
7.851243583E0,4.944692069E0,8.278924123E0,-7.910563570E-1,9.675553444E0
7.861298583E0,5.062168479E0,8.149429346E0,-5.109162551E-1,9.607277648E0
7.871352583E0,5.293458602E0,7.732204782E0,1.293778324E-1,9.371469116E0
7.881406583E0,5.319302126E0,7.625999465E0,6.184868968E-1,9.318442412E0
7.891461583E0,5.469772620E0,7.825592417E0,8.412412548E-1,9.584675062E0
7.901515583E0,5.483390785E0,7.909850795E0,1.002249016E0,9.676663536E0
7.911569583E0,5.385801925E0,7.955621629E0,9.341733921E-1,9.652536341E0
7.921624583E0,5.371057001E0,7.953813086E0,5.635125446E-1,9.613997207E0
7.931678583E0,5.443099376E0,7.905422114E0,1.397110319E-1,9.599091039E0
7.941732583E0,5.149896010E0,7.571322736E0,-1.599839316E-1,9.158163121E0
7.951787583E0,4.720937253E0,6.914295672E0,4.428955954E-1,8.383966226E0
7.961841583E0,4.902325191E0,6.744565619E0,7.044662268E0,1.091554965E1
7.971895583E0,3.545413310E0,6.206858591E0,1.136319355E1,1.342450062E1
7.981950583E0,3.323232856E-1,4.281689735E0,-1.583147671E0,4.577080107E0
7.992004583E0,-3.183237357E-1,3.101933286E0,-1.011203091E1,1.058189440E1
8.002058583E0,-2.160622197E0,1.114262956E0,-4.180964429E0,4.836355422E0
8.012112583E0,-5.248939072E0,-3.162156683E0,2.878870779E0,6.770413077E0
8.022167583E0,-3.018726237E0,-5.649134790E0,-3.006997308E0,7.075836684E0
8.032221583E0,-3.904066608E0,-1.394377331E1,6.091818717E0,1.570925859E1
8.042275583E0,-4.496681330E0,-2.303645326E1,3.441936597E0,2.372225220E1
8.052330583E0,-7.533086039E0,-3.372659019E1,-1.383377548E0,3.458531487E1
8.062384583E0,-1.359903550E1,-4.413157479E1,3.478279381E0,4.631012943E1
8.072438583E0,-1.810915666E1,-5.028961907E1,-9.179614019E-1,5.345867558E1
8.082493583E0,-2.237892217E1,-5.460208563E1,7.510617528E0,5.948624453E1
8.092547583E0,-2.060149491E1,-4.641169888E1,7.818338946E0,5.137697742E1
8.102601583E0,-1.006695589E1,-2.704655328E1,-4.588103131E0,2.922174422E1
8.112656583E0,-6.365915721E0,-1.868586988E1,1.101932348E0,1.977121319E1
8.122710583E0,-9.040958410E0,-1.935886335E1,4.976678678E0,2.193790897E1
8.132764583E0,-9.328671241E0,-1.957336495E1,-1.443105102E0,2.173069890E1
8.142819583E0,-6.426484104E0,-1.602733739E1,-1.822208744E0,1.736363114E1
8.152873583E0,-4.106566503E0,-1.190456503E1,-2.869491261E0,1.291574764E1
8.162927583E0,-2.477787161E0,-7.953787943E0,-2.861043203E0,8.808390322E0
8.172982583E0,-8.477962759E-1,-4.733559052E0,-2.036401609E0,5.222286026E0
8.183036583E0,1.123064478E0,-1.331843113E0,-1.483846747E0,2.288423271E0
8.193090583E0,2.881961617E0,1.625186813E0,-1.062968842E0,3.475174485E0
8.203145583E0,4.635001309E0,4.445283719E0,-4.447246045E-1,6.437512288E0
8.213199583E0,6.573441591E0,8.774452261E0,5.296747077E-1,1.097641572E1
8.223249958E0,8.023785546E0,1.414400770E1,3.604133681E0,1.665604598E1
8.233304958E0,6.958927469E0,1.357141560E1,5.437105980E0,1.619172981E1
8.243358958E0,6.350566195E0,1.256558224E1,3.984983886E0,1.463228091E1
8.253412958E0,6.818567396E0,1.214322148E1,2.223492630E0,1.410299999E1
8.263467958E0,7.380257363E0,1.170509663E1,9.492779195E-1,1.387006180E1
8.273521958E0,7.427680036E0,1.129505244E1,7.101794243E-2,1.351864209E1
8.283575958E0,7.456343088E0,1.066857708E1,-5.329731220E-1,1.302688180E1
8.293630958E0,7.461216157E0,1.004285718E1,-1.078972086E0,1.255758367E1
8.303684958E0,7.207822389E0,9.060124998E0,-1.144649182E0,1.163394990E1
8.313738958E0,7.095234836E0,8.286547723E0,-8.976949525E-1,1.094600780E1
8.323793958E0,7.108161861E0,7.869238374E0,-3.604527783E-1,1.061041016E1
8.333847958E0,7.283558450E0,7.690191368E0,2.412087554E-1,1.059468964E1
8.343901958E0,7.542799433E0,7.719775355E0,7.766991037E-1,1.082090645E1
8.353956958E0,7.482235143E0,7.825992367E0,8.629595679E-1,1.086161583E1
8.364010958E0,6.782392427E0,7.639400114E0,-1.280832406E-1,1.021653985E1
8.374064958E0,6.071371003E0,7.537818190E0,-1.373598665E0,9.775838697E0
8.384119958E0,5.808219402E0,7.746460878E0,-2.259502707E0,9.942254334E0
8.394173958E0,5.835566829E0,8.040497473E0,-2.451022993E0,1.023283702E1
8.404227958E0,5.724311273E0,7.967048258E0,-2.223408430E0,1.005908259E1
8.414282958E0,5.777005795E0,8.049327353E0,-1.549098750E0,1.002821887E1
8.424336958E0,5.963152490E0,8.334045240E0,-5.048264166E-1,1.026013389E1
8.434390958E0,6.001712539E0,8.658593776E0,1.686839855E-1,1.053661491E1
8.444445958E0,5.852552991E0,8.877652109E0,1.116806495E-1,1.063379312E1
8.454499958E0,5.648720223E0,8.948129768E0,-2.631849307E-1,1.058519404E1
8.464553958E0,5.513829635E0,8.943910418E0,-7.221445817E-1,1.053173032E1
8.474608958E0,5.399686139E0,8.928843312E0,-1.011624441E0,1.048352218E1
8.484662958E0,5.384484547E0,8.905711142E0,-9.337570703E-1,1.044874476E1
8.494716958E0,5.422290305E0,8.855237977E0,-3.952998447E-1,1.039099291E1
8.504771958E0,5.294260840E0,8.560060006E0,5.161617923E-1,1.007820659E1
8.514825958E0,5.126706537E0,8.072267150E0,1.301055769E0,9.650770071E0
8.524879958E0,4.963405498E0,7.698200884E0,1.632377719E0,9.303888865E0
8.534934958E0,4.828435974E0,7.549708503E0,1.650235115E0,9.112363490E0
8.544988958E0,4.765196290E0,7.647034823E0,1.600743113E0,9.151317707E0
8.555042958E0,4.564870681E0,7.832523122E0,1.594346259E0,9.204803245E0
8.565097958E0,4.174983897E0,7.910665897E0,1.595990496E0,9.086050359E0
8.575151958E0,3.849273227E0,7.541024219E0,1.647257713E0,8.625393244E0
8.585205958E0,3.640487283E0,6.434146296E0,1.963296795E0,7.648916297E0
8.595260958E0,3.033920227E0,4.676881406E0,3.808101520E0,6.751261276E0
8.605314958E0,9.387435758E-1,2.048724031E0,9.506856952E0,9.770303924E0
8.615368958E0,-9.436906126E-1,8.131839752E-1,3.892694358E0,4.087161548E0
8.625423958E0,-4.172561395E-1,9.844717258E-1,-5.656423345E0,5.756597286E0
8.635477958E0,-4.848973149E-1,-6.994439363E-1,-8.755521900E0,8.796789810E0
8.645531958E0,-1.275092085E0,-4.843796024E0,-7.045547537E0,8.644533524E0
8.655586958E0,-2.360638196E0,-1.326597342E1,1.299303943E0,1.353687018E1
8.665640958E0,-2.622696368E0,-2.350947430E1,3.022638025E0,2.384764681E1
8.675694958E0,-4.045902226E0,-3.430975406E1,-5.526085984E0,3.498665710E1
8.685749958E0,-7.945947411E0,-4.727116005E1,-4.022980848E0,4.810285883E1
8.695803958E0,-1.758529642E1,-5.927670533E1,3.217328671E0,6.191382438E1
8.705857958E0,-2.930061515E1,-6.207958920E1,-2.982833104E0,6.871170743E1
8.715912958E0,-3.558727011E1,-5.111795903E1,1.930933743E1,6.521004556E1
8.725966958E0,-2.446319259E1,-2.396612079E1,2.768021604E1,4.403427185E1
8.736020958E0,-1.181654339E1,-1.304607484E1,-1.144337525E1,2.099479944E1
8.746075958E0,-6.109460936E0,-1.108542742E1,-1.742929505E1,2.154048607E1
8.756129958E0,-9.028589795E0,-9.723793330E0,-8.905188840E-2,1.326934515E1
8.766183958E0,-7.680241746E0,-1.080598197E1,6.242294472E0,1.465338186E1
8.776238958E0,-4.661140994E0,-1.029913245E1,6.630840783E0,1.310596865E1
8.786292958E0,-3.061994171E0,-9.867971635E0,-1.628014526E0,1.045959386E1
8.796346958E0,-9.283361167E-1,-6.904734889E0,-1.930058298E0,7.229266690E0
8.806401958E0,1.346250653E0,-4.186250896E0,-2.451477907E0,5.034563667E0
8.816455958E0,3.398387704E0,-1.422067990E0,-3.474688021E0,5.064066863E0
8.826509958E0,5.239212813E0,1.666488036E0,-2.371317258E0,5.987460131E0
8.836564958E0,6.944945607E0,4.895095986E0,-1.364330828E-1,8.497814318E0
8.846618958E0,8.093382030E0,7.841093386E0,1.828303882E0,1.141614091E1
8.856672958E0,8.480985770E0,9.671952501E0,1.706203494E0,1.297632133E1
8.866727958E0,8.792554656E0,1.060590662E1,7.861254001E-1,1.379899510E1
8.876781958E0,9.228814831E0,1.116356260E1,9.429146871E-3,1.448434472E1
8.886835958E0,9.857151947E0,1.169568729E1,-1.156613974E-1,1.529594466E1
8.896890958E0,1.080930553E1,1.242316628E1,6.360776603E-1,1.647970695E1
8.906944958E0,1.167072201E1,1.308167854E1,1.355071177E0,1.758329559E1
8.916999958E0,1.201317005E1,1.317051529E1,1.155620313E0,1.786376740E1
8.927053958E0,1.179760776E1,1.260462293E1,5.140778812E-1,1.727206832E1
8.937107958E0,1.161311291E1,1.189395351E1,6.651677409E-2,1.662332536E1
8.947162958E0,1.128524783E1,1.112766069E1,-1.378656141E-1,1.584931096E1
8.957216958E0,1.048935992E1,1.024578012E1,2.022574918E-1,1.466436463E1
8.967270958E0,9.169908811E0,9.512604180E0,7.853149760E-1,1.323607138E1
8.977325958E0,7.031030070E0,8.701284297E0,6.490736818E-1,1.120575874E1
8.987379958E0,5.551841800E0,8.409304753E0,2.928133754E-1,1.008092721E1
8.997433958E0,5.072784099E0,8.534936859E0,-1.215507495E-1,9.929403823E0
9.007488958E0,4.980232031E0,8.607066357E0,-5.268540108E-1,9.958005699E0
9.017542958E0,5.069428382E0,8.579420137E0,-8.940275788E-1,1.000524059E1
9.027596958E0,5.240175850E0,8.384894382E0,-1.159475967E0,9.955414670E0
9.037651958E0,5.257033957E0,8.032628290E0,-1.157794307E0,9.669540368E0
9.047705958E0,5.003980497E0,7.636421542E0,-7.260394120E-1,9.158705586E0
9.057759958E0,4.700579587E0,7.246139193E0,1.443232973E-1,8.638449564E0
9.067814958E0,4.601821284E0,7.148257973E0,4.821578944E-1,8.515094093E0
9.077868958E0,4.691309996E0,7.377699791E0,-2.355925047E-1,8.746104705E0
9.087922958E0,4.808798684E0,7.814998432E0,-6.067772627E-1,9.196027616E0
9.097977958E0,4.890816409E0,8.152903762E0,1.504371415E-2,9.507373518E0
9.108031958E0,4.965435067E0,8.206977058E0,1.098093066E0,9.654834344E0
9.118085958E0,5.056535271E0,8.081782908E0,1.791751767E0,9.700213313E0
9.128140958E0,5.121611273E0,7.919025076E0,1.700163320E0,9.582923119E0
9.138194958E0,5.288390236E0,7.854493450E0,1.416221943E0,9.574227031E0
9.148248958E0,5.394263431E0,7.842272184E0,1.231273343E0,9.597673938E0
9.158303958E0,5.360514472E0,7.756034524E0,1.187561898E0,9.502709624E0
9.168357958E0,5.045493389E0,7.373442433E0,8.407875109E-1,8.973938962E0
9.178411958E0,4.509876449E0,6.798369943E0,2.198646275E-1,8.161198437E0
9.188466958E0,3.977890629E0,6.650556425E0,-1.418904646E0,7.878248854E0
9.198520958E0,3.396840238E0,6.573162678E0,-3.114973161E0,8.027954222E0
9.208574958E0,2.377645115E0,5.521820440E0,9.576990795E-1,6.087765172E0
9.218629958E0,-1.074906225E0,1.378704454E0,1.740430990E1,1.749189104E1
9.228683750E0,7.675169286E-1,3.363266403E0,-1.085627387E0,3.616521804E0
9.238737750E0,2.021478930E0,2.658119093E0,-9.931383519E0,1.047780286E1
9.248792750E0,1.383609098E0,-2.597980480E0,-8.810958767E0,9.289610923E0
9.258846750E0,1.214340684E0,-9.246851152E0,-8.392540201E0,1.254645809E1
9.268900750E0,1.085266614E-1,-2.070331598E1,5.764319676E-1,2.071162342E1
9.278955750E0,-4.335726194E0,-3.485965195E1,1.086634979E1,3.677052370E1
9.289009750E0,-7.038375927E0,-3.987441822E1,-9.567313653E0,4.160578631E1
9.299063750E0,-2.372926412E1,-5.013793294E1,-7.173364162E-1,5.547436225E1
9.309118750E0,-3.481924535E1,-5.657735928E1,-2.036606116E0,6.646446565E1
9.319172750E0,-4.292968663E1,-5.829261426E1,1.817408063E1,7.464103482E1
9.329226750E0,-3.698755430E1,-4.517173365E1,1.488535395E1,6.025063033E1
9.339281750E0,-1.631307444E1,-2.485576997E1,-1.394921706E1,3.284062051E1
9.349335750E0,-8.042192581E0,-1.338446140E1,-1.406112108E1,2.101275314E1
9.359389750E0,-8.164743789E0,-1.008009692E1,-5.087451839E0,1.393389972E1
9.369444750E0,-7.384894790E0,-9.756245377E0,-1.130115927E0,1.228813073E1
9.379498750E0,-3.504794165E0,-6.811181193E0,9.452302430E0,1.216642070E1
9.389552750E0,-1.677679607E0,-6.645953497E0,9.015693176E-1,6.913474812E0
9.399607750E0,-3.751667118E-1,-5.512798771E0,-5.251473840E0,7.622970408E0
9.409661750E0,2.100498787E0,-3.331265177E0,-3.144033823E0,5.039282837E0
9.419715750E0,5.049428566E0,-6.643243897E-1,-3.698837525E-1,5.106355816E0
9.429770750E0,6.562747033E0,1.581129797E0,-1.054366418E0,6.832372106E0
9.439824750E0,7.305611808E0,3.550036996E0,-1.972657603E0,8.358594654E0
9.449878750E0,7.941051537E0,5.537240717E0,-1.031947024E0,9.735822972E0
9.459933750E0,8.359200547E0,7.381544920E0,8.798901808E-1,1.118649391E1
9.469987750E0,8.647494591E0,8.723486760E0,1.847038361E0,1.242134995E1
9.480041750E0,8.820636494E0,9.655255777E0,1.616496681E0,1.317727794E1
9.490096750E0,9.156283044E0,1.048767124E1,1.551053474E0,1.400837372E1
9.500150750E0,9.433339909E0,1.121619105E1,2.548270376E0,1.487563529E1
9.510205750E0,9.640620781E0,1.215335353E1,3.647040550E0,1.593569816E1
9.520259750E0,9.592117542E0,1.268241078E1,2.743526448E0,1.613626969E1
9.530313750E0,9.284622411E0,1.243571558E1,1.089917416E0,1.555760763E1
9.540368750E0,9.050147894E0,1.185737566E1,2.786709890E-3,1.491651911E1
9.550422750E0,8.897771208E0,1.136508805E1,-5.887151404E-1,1.444583485E1
9.560476750E0,8.779024783E0,1.102814108E1,-5.437758529E-1,1.410627038E1
9.570531750E0,8.495121413E0,1.085384143E1,-1.211917305E-1,1.378360073E1
9.580585750E0,8.134662203E0,1.077027419E1,3.654218153E-1,1.350203942E1
9.590639750E0,7.678160722E0,1.077228797E1,1.004872150E0,1.326672937E1
9.600694750E0,7.211506135E0,1.079923428E1,1.466499227E0,1.306827846E1
9.610748750E0,6.723735498E0,1.067317065E1,1.221696115E0,1.267350513E1
9.620802750E0,6.384841404E0,1.029041192E1,5.353664605E-1,1.212210355E1
9.630857750E0,6.160757389E0,9.668816639E0,-1.696978927E-2,1.146478237E1
9.640911750E0,5.866643026E0,8.902299877E0,-3.237241510E-1,1.066645399E1
9.650965750E0,5.349227591E0,8.027204998E0,-4.227256250E-1,9.655514116E0
9.661020750E0,4.937485376E0,7.387747647E0,-2.236654273E-1,8.888622129E0
9.671074750E0,4.723586334E0,7.062571705E0,1.925476420E-1,8.498780003E0
9.681128750E0,4.676123315E0,6.876509210E0,6.308081496E-1,8.339689868E0
9.691183750E0,4.765907311E0,6.816672898E0,9.631275614E-1,8.373082861E0
9.701237750E0,5.036247187E0,7.020610331E0,1.149265632E0,8.716281698E0
9.711291750E0,5.273327808E0,7.375570820E0,9.763540363E-1,9.119226848E0
9.721346750E0,5.191617647E0,7.713719394E0,5.441149914E-1,9.313990649E0
9.731400750E0,4.943509762E0,7.943420244E0,2.890886807E-1,9.360544120E0
9.741454750E0,4.686397457E0,8.137735500E0,2.200904397E-1,9.393268866E0
9.751509750E0,4.507779930E0,8.378303985E0,2.089830323E-1,9.516287694E0
9.761563750E0,4.298466274E0,8.591970016E0,2.435108407E-1,9.610310015E0
9.771617750E0,4.012801723E0,8.754117399E0,4.069779404E-1,9.638608828E0
9.781672750E0,3.601626687E0,8.801642398E0,6.375511587E-1,9.531374255E0
9.791726750E0,3.093252217E0,8.540974109E0,2.587966136E-1,9.087542225E0
9.801780750E0,2.788918968E0,7.803368905E0,2.261355836E-2,8.286805575E0
9.811835750E0,2.588611778E0,7.065172547E0,2.339124827E0,7.879662366E0
9.821889750E0,1.246716424E0,5.735484132E0,9.680667776E0,1.132101624E1
9.831943750E0,-4.522996724E-2,5.485247276E0,7.807994052E0,9.542261501E0
9.841998750E0,1.004988728E0,6.548541808E0,-2.718512059E0,7.161264551E0
9.852052750E0,1.531297779E0,5.868303051E0,-4.866917084E0,7.776164575E0
9.862106750E0,2.072304244E0,3.189345067E0,-5.011143336E0,6.291098821E0
9.872161750E0,2.972570656E0,-3.695900468E0,-3.819184917E0,6.089501622E0
9.882215750E0,9.273045217E-1,-1.914624689E1,6.674755712E0,2.029756211E1
9.892269750E0,3.003451556E-2,-3.078247034E1,-6.537853682E-1,3.078942704E1
9.902324750E0,-1.402874504E0,-3.939940913E1,-4.995172251E0,3.973956772E1
9.912378750E0,-1.703037928E1,-5.035608087E1,4.648759807E0,5.336084394E1
9.922432750E0,-3.690860987E1,-5.920578562E1,6.476961509E-1,6.977098282E1
9.932487750E0,-4.262878424E1,-6.189854070E1,-7.587762183E0,7.553950437E1
9.942541750E0,-4.234944170E1,-5.465679686E1,2.548387086E1,7.369035438E1
9.952596750E0,-2.678589376E1,-3.220046691E1,1.352783513E1,4.401541204E1
9.962650750E0,-1.282640197E1,-1.920451089E1,-2.163316594E1,3.164369913E1
9.972704750E0,-7.933589906E0,-1.357583375E1,-1.694942692E1,2.311986557E1
9.982759750E0,-8.279771385E0,-8.685727195E0,-5.224018239E0,1.308765975E1
9.992813750E0,-7.037107081E0,-7.890233386E0,-4.744734836E0,1.158832031E1
1.000286775E1,-4.431642165E0,-5.670411054E0,-1.623968253E0,7.377688438E0
1.001292275E1,-1.658662122E-1,-2.065630671E0,8.772803346E0,9.014234311E0
1.002297675E1,1.750003232E0,-1.797749256E0,3.067330048E0,3.962691929E0
1.003303075E1,3.142243990E0,-1.124859865E0,-2.341536219E0,4.076984042E0
1.004308575E1,5.312366744E0,1.078202593E0,-1.330888263E0,5.581668641E0
1.005313975E1,7.061696377E0,3.544599085E0,1.122571484E-1,7.902173123E0
1.006319375E1,8.080770171E0,5.865761851E0,9.347732433E-1,1.002894858E1
1.007324875E1,8.907976354E0,7.826265432E0,2.387004168E0,1.209546453E1
1.008330275E1,9.380697427E0,9.094041188E0,3.344797972E0,1.348653932E1
1.009335675E1,9.401550937E0,9.461548632E0,2.344006083E0,1.354268906E1
1.010341175E1,9.398333214E0,9.647274912E0,1.330823944E0,1.353401909E1
1.011346575E1,9.583286492E0,9.934579607E0,9.326578669E-1,1.383492330E1
1.012351975E1,9.821268754E0,1.032711840E1,1.257937231E0,1.430695986E1
1.013357475E1,9.778965318E0,1.034481675E1,1.562739719E0,1.432080835E1
1.014362875E1,9.386604869E0,1.021616865E1,1.216965718E0,1.392693284E1
1.015368275E1,8.862039458E0,1.010117965E1,6.474667208E-1,1.345320730E1
1.016373775E1,8.385068629E0,1.018904342E1,3.401197072E-1,1.320006299E1
1.017379175E1,8.009699603E0,1.030789743E1,3.448992212E-1,1.305859842E1
1.018384575E1,7.668129238E0,1.034636743E1,3.697019406E-1,1.288348573E1
1.019390075E1,7.345396848E0,1.034665511E1,5.556340063E-1,1.270105728E1
1.020395475E1,7.126720923E0,1.032748092E1,6.611645544E-1,1.256519606E1
1.021400875E1,6.970668678E0,1.024271033E1,4.108767907E-1,1.239645742E1
1.022406408E1,6.688808910E0,1.003294030E1,-3.273411655E-1,1.206263686E1
1.023411808E1,6.422947124E0,9.866032698E0,-1.087282734E0,1.182264923E1
1.024417208E1,6.219466943E0,9.700466448E0,-1.446493564E0,1.161349052E1
1.025422708E1,6.129249083E0,9.558659774E0,-1.336038491E0,1.143331404E1
1.026428108E1,6.159979125E0,9.391639906E0,-8.389678574E-1,1.126286420E1
1.027433508E1,6.358423684E0,9.179528650E0,-1.960208881E-1,1.116833569E1
1.028439008E1,6.493682646E0,8.904082108E0,3.710596275E-1,1.102670747E1
1.029444408E1,6.487023836E0,8.583947051E0,5.294490051E-1,1.077246218E1
1.030449808E1,6.178366864E0,8.219662592E0,3.442711937E-1,1.028851753E1
1.031455308E1,5.701290200E0,7.885517607E0,2.703179491E-1,9.734432169E0
1.032460708E1,5.290186501E0,7.711478156E0,3.401828206E-1,9.357814538E0
1.033466208E1,5.050430778E0,7.890763729E0,4.847599053E-1,9.381151072E0
1.034471608E1,4.814638591E0,8.239401038E0,7.232456124E-1,9.570347875E0
1.035477008E1,4.640539499E0,8.477295592E0,8.032565725E-1,9.697647576E0
1.036482508E1,4.464354998E0,8.613005374E0,6.249656117E-1,9.721363543E0
1.037487908E1,4.208674676E0,8.694079358E0,3.175307071E-1,9.664408112E0
1.038493308E1,3.919796495E0,8.816045845E0,3.631352982E-2,9.648253084E0
1.039498808E1,3.724701806E0,9.021939756E0,-1.274260410E-1,9.761405529E0
1.040504208E1,3.533796062E0,9.196930549E0,-1.966653426E-2,9.852493740E0
1.041509608E1,3.150484471E0,8.863686034E0,-3.882141888E-1,9.414945182E0
1.042515108E1,2.754935828E0,8.170599775E0,-1.316534518E0,8.722478733E0
1.043520508E1,2.497561275E0,7.512434843E0,-1.073550548E0,7.989180206E0
1.044525908E1,2.235216589E0,6.416146812E0,1.400107602E0,6.937105622E0
1.045531408E1,1.299849488E0,4.398998330E0,6.792008758E0,8.195863466E0
1.046536808E1,1.154730366E0,4.446516312E0,2.433707049E0,5.198830593E0
1.047542208E1,2.044150632E0,4.430428283E0,-4.682854922E0,6.762867498E0
1.048547708E1,2.563533947E0,1.331725584E0,-5.958123300E0,6.621512863E0
1.049553108E1,4.234559715E0,-5.514164681E0,-7.491085489E0,1.022026760E1
1.050558508E1,6.576295617E0,-1.905868367E1,-6.437108495E0,2.116406041E1
1.051564008E1,4.935150583E0,-3.658745974E1,1.055214381E1,3.839720902E1
1.052569408E1,9.892287281E-1,-4.741485187E1,1.109122201E1,4.870484531E1
1.053574808E1,-8.422891343E0,-5.192728384E1,1.591754773E0,5.263004455E1
1.054580308E1,-2.388813998E1,-5.685168725E1,-5.397983576E-1,6.166886538E1
1.055585708E1,-4.066596282E1,-5.760522494E1,-1.022890272E1,7.125105560E1
1.056591108E1,-6.135676576E1,-5.168121898E1,4.099383257E1,9.008937456E1
1.057596608E1,-3.672990726E1,-3.290509382E1,5.413027146E0,4.960979893E1
1.058602008E1,-7.499238846E0,-2.033372985E1,-3.043937443E1,3.736649126E1
1.059607408E1,-4.170006454E0,-1.217447719E1,-1.420460707E1,1.916709969E1
1.060612908E1,-7.099898576E0,-6.998499085E0,-6.581696105E-1,9.991032803E0
1.061618308E1,-7.100868629E0,-7.458670279E0,-3.383439882E0,1.083982302E1
1.062623708E1,-5.114627944E0,-6.148816790E0,-3.679061072E0,8.803570712E0
1.063629208E1,-2.437806532E0,-4.189075686E0,-7.383279661E-2,4.847340206E0
1.064634608E1,1.164230338E0,-1.771540282E0,3.527469667E0,4.115437948E0
1.065640108E1,3.705800389E0,8.407243609E-2,1.634299114E0,4.051044099E0
1.066645508E1,5.090545601E0,1.521540822E0,-2.036570009E0,5.690022706E0
1.067650908E1,6.233760461E0,3.195202807E0,-2.149494946E0,7.327306394E0
1.068656408E1,7.109907255E0,4.982896607E0,-1.764283887E0,8.859612712E0
1.069661808E1,7.759594309E0,6.624900012E0,-9.487516701E-1,1.024698657E1
1.070667208E1,8.258203930E0,8.120905459E0,8.198813760E-1,1.161116889E1
1.071672708E1,8.934165448E0,9.298419501E0,2.810498117E0,1.319768226E1
1.072678108E1,9.397158508E0,1.006891237E1,3.394486442E0,1.418492589E1
1.073683508E1,9.401477262E0,1.072863266E1,3.173852284E0,1.461385205E1
1.074689008E1,9.400013119E0,1.146316457E1,3.426964216E0,1.521540247E1
1.075694408E1,9.347629668E0,1.194628492E1,3.784251312E0,1.563369635E1
1.076699808E1,9.182997803E0,1.213423665E1,3.279745359E0,1.556675552E1
1.077705308E1,9.001199098E0,1.206128094E1,1.956064374E0,1.517637213E1
1.078710708E1,8.973451136E0,1.191025203E1,5.885760498E-1,1.492391874E1
1.079716108E1,8.999078897E0,1.172452459E1,-1.244427824E-1,1.478050688E1
1.080721608E1,8.963268210E0,1.150571827E1,-3.223781951E-1,1.458854542E1
1.081727008E1,8.655816348E0,1.137030962E1,-2.290003538E-2,1.429012323E1
1.082732408E1,8.194914837E0,1.115050693E1,5.093484704E-1,1.384737773E1
1.083737908E1,7.773601899E0,1.094469313E1,1.182627286E0,1.347641649E1
1.084743308E1,7.420862768E0,1.076756225E1,1.593836235E0,1.317383449E1
1.085748708E1,7.047472440E0,1.046153653E1,1.183259005E0,1.266928239E1
1.086754208E1,6.746975257E0,1.012385515E1,3.843186276E-1,1.217217396E1
1.087759608E1,6.518861926E0,9.779599156E0,-7.824977875E-2,1.175339285E1
1.088765108E1,6.343072404E0,9.402601097E0,-4.104277611E-2,1.134218495E1
1.089770508E1,6.099014300E0,8.900834565E0,3.727694265E-1,1.079637849E1
1.090775908E1,5.588671072E0,8.226086344E0,1.065780256E0,1.000188124E1
1.091781408E1,5.058123375E0,7.597493704E0,1.738825256E0,9.291395801E0
1.092786808E1,4.810253764E0,7.341547042E0,1.984122823E0,8.998533081E0
1.093792208E1,4.701396443E0,7.331521406E0,1.646743158E0,8.863751895E0
1.094797708E1,4.623763838E0,7.415675703E0,1.193772298E0,8.820234150E0
1.095803108E1,4.494996162E0,7.595411510E0,1.040629043E0,8.886966598E0
1.096808508E1,4.201819985E0,8.041132481E0,1.244113244E0,9.157670038E0
1.097814008E1,3.801748520E0,8.382310497E0,1.494747126E0,9.324735388E0
1.098819408E1,3.473910926E0,8.517229736E0,1.630905390E0,9.341900871E0
1.099824808E1,3.289368415E0,8.603156324E0,1.389363928E0,9.314750422E0
1.100830308E1,3.244636045E0,8.731140180E0,8.301642164E-1,9.351451467E0
1.101835708E1,3.118154631E0,8.860057252E0,3.263121287E-1,9.398403185E0
1.102841108E1,2.901578149E0,8.736010326E0,-5.301658738E-1,9.220526451E0
1.103846608E1,2.504277095E0,8.341914423E0,-5.207015705E-1,8.725254732E0
1.104852008E1,2.445649110E0,7.871570828E0,4.448221799E-1,8.254737648E0
1.105857408E1,2.663352935E0,7.318291495E0,1.947431545E0,8.027660238E0
1.106862908E1,1.379340923E0,5.356852945E0,8.637295293E0,1.025676971E1
1.107868308E1,1.055530306E0,5.655380201E0,3.936056725E0,6.970653627E0
1.108873708E1,2.469073056E0,5.584442950E0,-3.765564780E0,7.173688238E0
1.109879208E1,3.531351634E0,1.085022200E0,-4.132838920E0,5.543290997E0
1.110884608E1,3.846274483E0,-6.219579209E0,-5.282988578E0,9.021472233E0
1.111890108E1,3.016299935E0,-1.454823507E1,-7.105930563E0,1.646947049E1
1.112895508E1,2.745537598E0,-2.295969101E1,-7.635119367E0,2.435118962E1
1.113900908E1,1.524165053E0,-3.207659482E1,-4.576239130E0,3.243721595E1
1.114906408E1,-6.895367650E0,-3.945183761E1,4.123223174E0,4.026157666E1
1.115911808E1,-1.719761082E1,-4.275406902E1,-2.674165972E-1,4.608405090E1
1.116917208E1,-2.711912658E1,-4.313336620E1,-5.025555553E0,5.119756357E1
1.117922708E1,-2.975735286E1,-3.799523070E1,-2.048289876E0,4.830458670E1
1.118928108E1,-1.751578589E1,-2.095531694E1,1.303693682E1,3.026367105E1
1.119933508E1,-8.531717967E0,-5.616246541E0,2.795919371E1,2.976657437E1
1.120939008E1,-1.086733096E1,5.667627779E0,2.779424376E1,3.037665013E1
1.121944408E1,-1.021354793E1,5.562573779E0,-9.976646523E-1,1.167279414E1
1.122949800E1,-4.944344745E0,1.696909345E0,-1.997154630E1,2.064433840E1
1.123955300E1,-3.563466004E0,2.614053306E0,-1.279643499E1,1.353810596E1
1.124960700E1,-3.966525688E0,4.114438317E0,-1.674940917E0,5.955447572E0
1.125966100E1,-3.913899286E0,4.186242710E0,3.462516457E0,6.695689349E0
1.126971600E1,-3.512934659E0,2.284963823E0,1.086601022E0,4.329257600E0
1.127977000E1,-2.862616982E0,1.890082054E0,1.294891634E0,3.666569309E0
1.128982400E1,-1.221305302E0,2.175777011E0,3.750600586E0,4.504730513E0
1.129987900E1,3.672343791E-1,2.391463839E0,3.474234277E0,4.233705729E0
1.130993300E1,1.226989965E0,2.509473515E0,1.525328064E-1,2.797539625E0
1.131998700E1,1.720449650E0,2.595541606E0,-3.003400100E0,4.326337411E0
1.133004200E1,2.321369172E0,2.476146140E0,-4.863436822E0,5.930689021E0
1.134009600E1,3.235784238E0,2.533783899E0,-5.480494659E0,6.850268768E0
1.135015100E1,3.911363933E0,2.492966241E0,-5.539095454E0,7.224626423E0
1.136020500E1,4.168921503E0,2.241738866E0,-4.778640500E0,6.726121072E0
1.137025900E1,4.912041217E0,2.236692719E0,-3.570402263E0,6.471376636E0
1.138031400E1,5.666755375E0,2.074636552E0,-2.058326329E0,6.375965854E0
1.139036800E1,6.257051675E0,1.826740336E0,-1.769306061E-1,6.520657970E0
1.140042200E1,6.175928575E0,1.457971063E0,1.925166664E0,6.631292488E0
1.141047700E1,5.099226962E0,9.249283594E-1,4.404452612E0,6.801235983E0
1.142053100E1,3.886907954E0,9.371186346E-1,3.947958148E0,5.618951709E0
1.143058500E1,2.519741226E0,1.014853274E0,1.619049575E0,3.162332136E0
1.144064000E1,1.184818384E0,3.770220333E-1,1.378105699E0,1.856102242E0
1.145069400E1,3.707631737E-1,-6.636209697E-1,9.111154819E-1,1.186587352E0
1.146074800E1,-5.621571600E-2,-1.467426011E0,1.697282982E-1,1.478278390E0
1.147080300E1,-2.421998584E-1,-1.916721384E0,1.056252730E-1,1.934848401E0
1.148085700E1,-2.133140284E-1,-2.042659299E0,1.838211112E-1,2.061977228E0
1.149091100E1,-2.695496249E-1,-1.747354444E0,5.834081344E-1,1.861792041E0
1.150096600E1,-3.884773135E-2,-9.488405478E-1,-4.489959955E-2,9.506963266E-1
1.151102000E1,2.236606765E-1,-1.413067371E-1,-7.819972658E-1,8.255370469E-1
1.152107500E1,6.110223413E-2,3.826569951E-1,-1.059323688E0,1.127974527E0
1.153112900E1,-7.339775920E-2,6.788143748E-1,-1.384343362E0,1.543561703E0
1.154118300E1,-3.062262851E-1,5.312119406E-1,-1.364209206E0,1.495669556E0
1.155123800E1,-9.074124402E-1,6.227460086E-2,-5.870931959E-1,1.082568189E0
1.156129200E1,-1.321857823E0,-2.484084320E-1,1.603494374E-1,1.354520873E0
1.157134600E1,-1.484685237E0,-3.630366629E-1,3.125830125E-1,1.560062182E0
1.158140100E1,-1.555259376E0,-3.868278140E-1,1.203789675E-1,1.607158542E0
1.159145500E1,-1.401960585E0,-3.869611305E-1,-2.703729129E-1,1.479301832E0
1.160150900E1,-8.660650241E-1,-2.025107127E-1,-5.579050648E-1,1.049922510E0
1.161156400E1,-4.355935925E-1,3.580250144E-3,-4.903217038E-1,6.558734400E-1
1.162161800E1,-6.095780790E-2,1.087681514E-1,-2.509635922E-1,2.802304225E-1
1.163167200E1,4.304766941E-1,1.778290308E-1,4.773330644E-2,4.682006161E-1
1.164172700E1,7.184251678E-1,1.922237062E-1,3.627131657E-1,8.274330883E-1
1.165178100E1,9.063704664E-1,7.298319161E-2,3.420491787E-1,9.715099635E-1
1.166183500E1,1.034240887E0,-1.505289656E-1,3.522947431E-1,1.102916482E0
1.167189000E1,1.119845878E0,-3.703135228E-1,4.538808326E-1,1.263801688E0
1.168194400E1,1.245116626E0,-5.144017804E-1,5.683938003E-1,1.462188810E0
1.169199900E1,1.334452726E0,-5.359019923E-1,5.777738305E-1,1.549766957E0
1.170205300E1,1.471127298E0,-4.179864568E-1,4.338773616E-1,1.589709965E0
1.171210700E1,1.641266656E0,-3.311874640E-1,1.008715598E-1,1.677383809E0
1.172216200E1,1.817791758E0,-3.709467763E-1,-1.581320270E-1,1.861981236E0
1.173221600E1,2.009878054E0,-5.189743030E-1,-5.360037339E-1,2.143885287E0
1.174227000E1,2.134699736E0,-6.840476328E-1,-7.647585046E-1,2.368484684E0
1.175232500E1,2.181908401E0,-8.512797546E-1,-7.742040968E-1,2.466737415E0
1.176237900E1,2.212933143E0,-9.332588875E-1,-8.506950331E-1,2.547886827E0
1.177243300E1,2.247307754E0,-9.579224432E-1,-9.836934614E-1,2.633564196E0
1.178248800E1,2.290107034E0,-9.714300960E-1,-1.057541456E0,2.703083534E0
1.179254200E1,2.374418621E0,-1.020577698E0,-1.129628270E0,2.820550062E0
1.180259600E1,2.499009338E0,-1.110809006E0,-1.283496580E0,3.020977953E0
1.181265100E1,2.662277632E0,-1.236049349E0,-1.505182067E0,3.298653246E0
1.182270500E1,2.817979045E0,-1.386658421E0,-1.705980130E0,3.574100681E0
1.183276000E1,2.995784687E0,-1.492151547E0,-1.895542184E0,3.846338818E0
1.184281400E1,3.173155296E0,-1.512363033E0,-2.088735359E0,4.088883940E0
1.185286800E1,3.318403641E0,-1.410279418E0,-2.238213580E0,4.243853295E0
1.186292300E1,3.368343540E0,-1.284885294E0,-2.318101748E0,4.286054612E0
1.187297700E1,3.318016555E0,-1.140895270E0,-2.412998550E0,4.258337455E0
1.188303100E1,3.222970650E0,-9.590035933E-1,-2.522527424E0,4.203614196E0
1.189308600E1,3.085066407E0,-8.195287889E-1,-2.670286564E0,4.161693466E0
1.190314000E1,2.883064402E0,-7.232824498E-1,-2.811425486E0,4.091370322E0
1.191319400E1,2.563990615E0,-6.199165410E-1,-2.651053902E0,3.739843738E0
1.192324900E1,2.090871931E0,-3.698580247E-1,-2.213803208E0,3.067485132E0
1.193330300E1,1.504984431E0,-7.980279922E-2,-1.712922530E0,2.281545576E0
1.194335700E1,9.064839023E-1,1.585624552E-1,-1.137190474E0,1.462893465E0
1.195341200E1,2.851640296E-1,2.392078382E-1,-3.730874419E-1,5.270039402E-1
1.196346600E1,-3.672068971E-1,-1.256098866E-2,2.994739387E-1,4.740077254E-1
1.197352100E1,-1.125769692E0,-5.232731760E-1,8.288305396E-1,1.492692962E0
1.198357500E1,-1.810624825E0,-1.135012386E0,1.244516702E0,2.472941001E0
1.199362900E1,-2.328352502E0,-1.922118949E0,1.403684928E0,3.329579253E0
1.200368400E1,-2.737343602E0,-2.770054681E0,1.487158610E0,4.168680086E0
1.201373800E1,-3.066116751E0,-3.492989221E0,1.456289989E0,4.870608397E0
1.202379200E1,-2.852886922E0,-3.739897258E0,8.772011194E-1,4.784900949E0
1.203384700E1,-2.066097279E0,-3.183572695E0,1.779201742E-1,3.799414252E0
1.204390100E1,-6.386703157E-1,-2.392126914E0,-9.347505122E-1,2.646493806E0
1.205395500E1,6.270729482E-1,-2.034438114E0,-1.761614048E0,2.763230533E0
1.206401000E1,1.606607285E0,-1.793701229E0,-1.498011042E0,2.835945724E0
1.207406400E1,2.387322841E0,-1.555945255E0,-9.593532568E-1,3.006764815E0
1.208411800E1,2.901504766E0,-1.334962018E0,-5.547423790E-1,3.241695946E0
1.209417300E1,3.048500260E0,-1.178660097E0,2.896768375E-1,3.281235457E0
1.210422700E1,2.665410278E0,-1.155926122E0,1.511143304E0,3.274771936E0
1.211428200E1,1.650068470E0,-8.722589797E-1,2.189016277E0,2.876691492E0
1.212433600E1,4.107999364E-1,-1.641313434E-1,2.085908230E0,2.132301299E0
1.213439000E1,-4.967627773E-1,6.158708525E-1,1.502486501E0,1.698097715E0
1.214444500E1,-8.269152841E-1,1.318402119E0,5.433144345E-1,1.648382118E0
1.215449900E1,-8.196091881E-1,1.736016108E0,-2.502432883E-1,1.936009517E0
1.216455300E1,-7.216180399E-1,1.730053117E0,-5.643580520E-1,1.957630301E0
1.217460800E1,-5.896642166E-1,1.400675367E0,-2.225749216E-1,1.535947579E0
1.218466200E1,-2.208051887E-1,1.017182220E0,-7.010000266E-2,1.043229893E0
1.219471600E1,9.597210467E-2,6.649804473E-1,-3.634769583E-1,7.638881720E-1
1.220477100E1,1.630004919E-1,3.078839707E-1,-8.140932173E-1,8.854995574E-1
1.221482500E1,-1.002388179E-1,6.215590239E-2,-1.244881568E0,1.250456435E0
1.222488271E1,-5.950266981E-1,-3.763326466E-2,-1.266467734E0,1.399790540E0
1.223493771E1,-1.111323853E0,2.452029884E-2,-1.098857882E0,1.563051694E0
1.224499171E1,-1.579046142E0,3.710941261E-1,-8.493951970E-1,1.831002395E0
1.225504671E1,-2.100426282E0,8.670005786E-1,-4.347568560E-1,2.313545783E0
1.226510071E1,-2.674585144E0,1.224343223E0,4.306065023E-2,2.941815127E0
1.227515471E1,-3.151201048E0,1.444153508E0,4.712317872E-1,3.498243387E0
1.228520971E1,-3.436092597E0,1.598162736E0,8.481666970E-1,3.883328883E0
1.229526371E1,-3.442498806E0,1.708162311E0,1.100775769E0,3.997539719E0
1.230531771E1,-3.125172459E0,1.817551437E0,1.222444047E0,3.816355012E0
1.231537271E1,-2.698537971E0,1.985886928E0,1.328621297E0,3.604315278E0
1.232542671E1,-2.329949377E0,2.215854996E0,1.518162886E0,3.555769398E0
1.233548071E1,-2.119294662E0,2.345980103E0,1.635759748E0,3.559598638E0
1.234553571E1,-2.024688174E0,2.428758550E0,1.709832276E0,3.594684508E0
1.235558971E1,-2.113672272E0,2.572209461E0,1.795596896E0,3.782597018E0
1.236564471E1,-2.269232766E0,2.817826433E0,1.764658109E0,4.025367237E0
1.237569871E1,-2.664910341E0,3.064426906E0,1.646487050E0,4.382166016E0
1.238575271E1,-2.896067733E0,3.548732482E0,1.678732105E0,4.878406710E0
1.239580771E1,-3.097625934E0,4.037567897E0,1.678214042E0,5.358511297E0
1.240586171E1,-3.033495427E0,4.459749146E0,1.573624896E0,5.618518690E0
1.241591571E1,-2.603897569E0,4.754100906E0,1.205140382E0,5.552848036E0
1.242597071E1,-2.101078539E0,4.667656254E0,7.016646358E-1,5.166611965E0
1.243602471E1,-1.598768800E0,4.289436126E0,4.323665142E-1,4.598071853E0
1.244607871E1,-1.110132191E0,3.872387563E0,5.104595876E-1,4.060584676E0
1.245613371E1,-5.845110655E-1,3.203464338E0,5.638448127E-1,3.304808304E0
1.246618771E1,-5.714659274E-2,2.223514849E0,4.581235722E-1,2.270938402E0
1.247624171E1,2.812706611E-1,1.376850886E0,2.888583004E-1,1.434667441E0
1.248629671E1,5.900983724E-1,4.953895587E-1,3.304729342E-2,7.711802821E-1
1.249635071E1,1.015121953E0,-5.431233037E-1,-1.255631089E-2,1.151352754E0
1.250640571E1,1.594390405E0,-1.617150984E0,5.157931253E-2,2.271545398E0
1.251645971E1,2.073569143E0,-2.813848572E0,-2.127263832E-1,3.501811715E0
1.252651371E1,2.373195968E0,-4.188503829E0,-9.457612579E-1,4.906127575E0
1.253656871E1,2.698676257E0,-5.332102266E0,-1.594853651E0,6.185283040E0
1.254662271E1,3.287901348E0,-6.069041473E0,-1.667669320E0,7.101033772E0
1.255667671E1,4.044839202E0,-6.475518855E0,-1.394520149E0,7.761298542E0
1.256673171E1,5.143312629E0,-6.267086667E0,-7.454884207E-1,8.141608753E0
1.257678571E1,6.071462220E0,-5.824088745E0,7.892912288E-1,8.450186024E0
1.258684071E1,6.270272230E0,-5.416662360E0,2.671411568E0,8.705916650E0
1.259689471E1,5.345742066E0,-4.988189507E0,3.045280198E0,7.920399250E0
1.260694871E1,2.997497921E0,-4.458077427E0,1.425473993E0,5.558005419E0
1.261700371E1,1.917825338E-1,-4.247057846E0,2.664506006E-1,4.259727317E0
1.262705771E1,-2.543951038E0,-4.284926169E0,2.027580500E0,5.379903516E0
1.263711171E1,-5.042077446E0,-4.661871019E0,5.102288564E0,8.555053183E0
1.264716671E1,-5.962746109E0,-5.110598043E0,4.876276138E0,9.243950589E0
1.265722071E1,-5.540829738E0,-4.646988101E0,1.605135249E0,7.407546947E0
1.266727471E1,-3.813172810E0,-1.860588698E0,-1.402685932E0,4.468736399E0
1.267732971E1,-1.942742371E0,1.338919998E0,-2.848306214E0,3.698621766E0
1.268738371E1,-1.393631518E0,3.115378373E0,-2.872448198E0,4.460801482E0
1.269743871E1,-1.085343505E0,4.332831237E0,-2.118457925E0,4.943608099E0
1.270749271E1,-7.996245745E-1,5.226444833E0,-9.096057308E-1,5.364933144E0
1.271754671E1,-4.415650615E-1,5.727550045E0,6.888831340E-2,5.744959079E0
1.272760171E1,-2.960781500E-1,5.671206275E0,1.247255538E0,5.814283211E0
1.273765571E1,-5.210576659E-1,5.368868973E0,1.982804861E0,5.746979229E0
1.274770971E1,-1.145302316E0,4.630661505E0,1.896193564E0,5.133253686E0
1.275776471E1,-2.103723819E0,3.523352058E0,2.031964742E0,4.579142315E0
1.276781871E1,-2.982865264E0,2.319117994E0,2.363242399E0,4.456535436E0
1.277787271E1,-3.405447340E0,7.293015736E-1,1.980126836E0,4.006226985E0
1.278792771E1,-3.322014297E0,-9.701302600E-1,7.512340410E-1,3.541367574E0
1.279798171E1,-2.493419692E0,-1.644020694E0,-3.853442292E-1,3.011384396E0
1.280803671E1,-1.153124721E0,-9.973420322E-1,-1.186757759E0,1.932040820E0
1.281809071E1,-2.458429661E-1,1.895100135E-1,-1.221981533E0,1.260790100E0
1.282814471E1,-3.033459467E-1,9.491165364E-1,-7.618734884E-1,1.254309442E0
1.283819971E1,-1.024877448E0,1.235557013E0,1.311717582E-1,1.610646127E0
1.284825371E1,-2.119934640E0,1.279068484E0,1.258313792E0,2.777317530E0
1.285830771E1,-2.880073259E0,1.505132951E0,1.343996551E0,3.516613983E0
1.286836271E1,-2.912168334E0,1.731324302E0,5.278059375E-1,3.428817194E0
1.287841671E1,-3.109750136E0,1.615193921E0,-3.670577931E-1,3.523368947E0
1.288847071E1,-3.575298722E0,1.405956572E0,-9.560899258E-1,3.958987595E0
1.289852571E1,-3.778161729E0,1.452375863E0,-1.273032403E0,4.243172539E0
1.290857971E1,-3.637662493E0,1.605795692E0,-1.503182319E0,4.250967572E0
1.291863471E1,-3.281134950E0,1.815347037E0,-1.602127733E0,4.077762217E0
1.292868871E1,-2.871586026E0,1.983853267E0,-1.822014617E0,3.937183937E0
1.293874271E1,-2.333246914E0,1.852196190E0,-1.909345121E0,3.538399452E0
1.294879771E1,-1.735645394E0,1.428270131E0,-1.895604165E0,2.940363184E0
1.295885171E1,-1.364902101E0,9.521056330E-1,-1.732663314E0,2.402412338E0
1.296890571E1,-9.604934639E-1,6.362823129E-1,-1.276054244E0,1.719219971E0
1.297896071E1,-4.972685614E-1,5.324556434E-1,-1.013054670E0,1.247824026E0
1.298901471E1,-5.241970360E-2,5.392220414E-1,-7.037754075E-1,8.881486697E-1
1.299906871E1,2.576660362E-1,5.557135284E-1,-2.907632868E-1,6.780505887E-1
1.300912371E1,4.139015919E-1,5.932672709E-1,6.510874629E-2,7.263055358E-1
1.301917771E1,4.775184211E-1,5.776815176E-1,3.739423779E-1,8.375993555E-1
1.302923271E1,3.388651505E-1,4.479458356E-1,5.628167260E-1,7.951400687E-1
1.303928671E1,1.384404320E-1,1.945555758E-1,6.237645936E-1,6.679070995E-1
1.304934071E1,-3.920382679E-2,-1.377609855E-1,6.068461867E-1,6.235201068E-1
1.305939571E1,-1.936208984E-1,-5.293180275E-1,5.186304136E-1,7.659269760E-1
1.306944971E1,-3.421109399E-1,-8.693371260E-1,4.278138721E-1,1.027526955E0
1.307950371E1,-4.031777984E-1,-1.043748459E0,3.449669393E-1,1.170882305E0
1.308955871E1,-4.516941932E-1,-1.054044237E0,2.242979864E-1,1.168480416E0
1.309961271E1,-5.425254259E-1,-9.354708892E-1,3.015756290E-2,1.081826743E0
1.310966771E1,-7.977867946E-1,-7.437950671E-1,6.084850151E-2,1.092427303E0
1.311972171E1,-1.184279855E0,-4.764094967E-1,1.391836131E-1,1.284078215E0
1.312977571E1,-1.575302754E0,-1.896205258E-1,3.461013357E-1,1.623983019E0
1.313983071E1,-1.795338157E0,2.318187118E-1,5.567999411E-1,1.893939067E0
1.314988471E1,-1.771278034E0,7.877567732E-1,8.570555612E-1,2.119559115E0
1.315993871E1,-1.728473784E0,1.209797105E0,1.100362955E0,2.379501900E0
1.316999371E1,-1.769852775E0,1.509103795E0,1.062842542E0,2.557226501E0
1.318004771E1,-1.834876152E0,1.795885164E0,7.536698449E-1,2.675816184E0
1.319010171E1,-2.027490745E0,1.938938465E0,3.006076956E-1,2.821447514E0
1.320015671E1,-2.293518007E0,1.904825224E0,-2.997749790E-1,2.996406017E0
1.321021071E1,-2.562999220E0,1.690495534E0,-1.044917318E0,3.243237942E0
1.322026571E1,-2.733588520E0,1.424410969E0,-1.771854862E0,3.555407495E0
1.323031608E1,-2.706626424E0,1.304056560E0,-2.333995650E0,3.804461303E0
1.324037008E1,-2.496506437E0,1.354792265E0,-2.554039239E0,3.819832838E0
1.325042508E1,-2.110267438E0,1.459977828E0,-2.543684989E0,3.613183810E0
1.326047908E1,-1.607119209E0,1.557874836E0,-2.450656958E0,3.318964549E0
1.327053308E1,-1.110269308E0,1.457406222E0,-2.344752188E0,2.975666926E0
1.328058808E1,-8.501012483E-1,1.060895419E0,-2.204375743E0,2.589873286E0
1.329064208E1,-6.836049986E-1,3.380076563E-1,-2.032628986E0,2.170978020E0
1.330069608E1,-5.472958767E-1,-6.299620575E-1,-1.532329520E0,1.744826275E0
1.331075108E1,-3.139855403E-1,-1.629458789E0,-3.633389640E-1,1.698746028E0
1.332080508E1,-2.168001384E-2,-2.743452188E0,1.557871474E0,3.154990247E0
1.333086008E1,6.330297992E-1,-3.621920911E0,5.034003611E0,6.233797411E0
1.334091408E1,1.390146578E0,-3.536698328E0,6.638877196E0,7.649538090E0
1.335096808E1,1.958175219E0,-2.456159188E0,4.377411579E0,5.387847462E0
1.336102308E1,2.566901067E0,-1.232831626E0,2.259304633E0,3.635012012E0
1.337107708E1,2.587148513E0,-4.877659589E-1,2.181057047E0,3.418810158E0
1.338113108E1,1.565226832E0,7.550743461E-2,2.575092723E0,3.014421826E0
1.339118608E1,6.141462162E-1,5.492283815E-1,2.544160953E0,2.674244256E0
1.340124008E1,-6.571831852E-2,8.579777402E-1,2.902547325E0,3.027412373E0
1.341129508E1,-6.857716843E-1,9.244383627E-1,2.902946105E0,3.122813664E0
1.342134908E1,-1.086331977E0,6.024766356E-1,2.255628927E0,2.575064488E0
1.343140308E1,-1.155362743E0,-4.050015450E-2,1.509111250E0,1.901031324E0
1.344145808E1,-6.648737356E-1,-5.491868663E-1,9.745391337E-1,1.301303124E0
1.345151208E1,1.089611095E-1,-8.342520779E-1,6.204844518E-1,1.045394666E0
1.346156608E1,9.492527765E-1,-1.061604102E0,3.646044476E-1,1.470040988E0
1.347162108E1,1.676910113E0,-1.003410273E0,2.576319031E-1,1.971099668E0
1.348167508E1,2.069937730E0,-7.532330579E-1,3.627577873E-1,2.232396797E0
1.349172908E1,2.107533865E0,-4.132472885E-1,6.427505028E-1,2.241785119E0
1.350178408E1,1.902402430E0,-5.056028903E-2,8.695487952E-1,2.092320830E0
1.351183808E1,1.562378946E0,2.006314176E-1,8.067192936E-1,1.769767486E0
1.352189308E1,1.239515286E0,3.581326032E-1,6.437024295E-1,1.441877222E0
1.353194708E1,8.986942416E-1,3.936737341E-1,5.172990757E-1,1.109156744E0
1.354200108E1,6.268516311E-1,3.574063790E-1,3.506920578E-1,8.022887302E-1
1.355205608E1,5.870964119E-1,3.686996913E-1,2.358363702E-1,7.322844070E-1
1.356211008E1,7.020903862E-1,3.955658931E-1,9.797653019E-2,8.117898044E-1
1.357216408E1,8.327692240E-1,4.343300092E-1,6.876501024E-2,9.417408158E-1
1.358221908E1,1.003812853E0,4.500145805E-1,1.566931003E-1,1.111173297E0
1.359227308E1,1.076144665E0,3.772068053E-1,3.856823444E-1,1.203795325E0
1.360232808E1,1.101024860E0,2.433342183E-1,6.656113619E-1,1.309391374E0
1.361238208E1,1.171469483E0,1.843662179E-1,7.329806417E-1,1.394127782E0
1.362243608E1,1.292481996E0,2.921198773E-1,6.800714531E-1,1.489409586E0
1.363249108E1,1.353508217E0,4.574662721E-1,4.070292863E-1,1.485574880E0
1.364254508E1,1.251897642E0,6.424224740E-1,1.650458479E-1,1.416754909E0
1.365259908E1,1.260602100E0,7.686124045E-1,-1.147157930E-1,1.480892432E0
1.366265408E1,1.296535871E0,8.338936436E-1,-2.410450333E-1,1.560284135E0
1.367270808E1,1.340792277E0,8.550640726E-1,-2.330138826E-1,1.607219328E0
1.368276208E1,1.422485773E0,8.897854239E-1,-2.790343934E-1,1.700895079E0
1.369281708E1,1.356508423E0,8.562703532E-1,-1.687414344E-1,1.613005794E0
1.370287108E1,1.127339377E0,8.934030962E-1,2.750680809E-1,1.464488174E0
1.371292608E1,1.086046340E0,8.957004672E-1,9.267493285E-1,1.685419917E0
1.372298008E1,1.219723630E0,7.264224046E-1,1.513137935E0,2.074849791E0
1.373303408E1,9.811341351E-1,6.348374659E-1,1.768931108E0,2.120084919E0
1.374308908E1,9.171027383E-1,6.699634445E-1,1.448637738E0,1.840782373E0
1.375314308E1,1.015015534E0,6.986183095E-1,3.299794292E-1,1.275621613E0
1.376319708E1,9.797708568E-1,6.830454201E-1,-7.207267781E-1,1.394972783E0
1.377325208E1,9.340353978E-1,7.786906654E-1,-1.160557702E0,1.680974555E0
1.378330608E1,8.308378887E-1,1.072555352E0,-9.998364544E-1,1.685330684E0
1.379336008E1,7.684460512E-1,1.249855210E0,-6.117335089E-1,1.589611671E0
1.380341508E1,4.864132056E-1,1.433391123E0,1.804805969E-1,1.524395344E0
1.381346908E1,-6.298179236E-1,1.309907284E0,2.195935433E0,2.633374287E0
1.382352408E1,-2.387732439E0,8.739950180E-2,3.441084657E0,4.189268252E0
1.383357808E1,-4.170302031E0,-2.366033129E0,3.985278001E0,6.234739172E0
1.384363208E1,-5.374957094E0,-6.447535250E0,2.072261413E0,8.646105593E0
1.385368708E1,-2.600464669E0,-1.088025213E1,-5.716862504E0,1.256283487E1
1.386374108E1,2.748153350E0,-1.119042237E1,-1.015129145E1,1.535664735E1
1.387379508E1,5.489944929E0,-7.929895635E0,-5.559647833E0,1.113249407E1
1.388385008E1,6.213482317E0,-2.768146734E0,9.927677554E-1,6.874269901E0
1.389390408E1,5.037833537E0,2.326916426E0,1.942941468E0,5.879568721E0
1.390395908E1,3.111706907E0,5.579725417E0,7.307265401E-1,6.430397879E0
1.391401308E1,8.972605044E-1,6.662829731E0,-5.935567081E-2,6.723235793E0
1.392406708E1,-9.465197879E-1,5.696948057E0,-8.880733591E-1,5.842926593E0
1.393412208E1,-2.624392353E0,3.336019548E0,-7.581319282E-1,4.311754360E0
1.394417608E1,-3.634137499E0,7.806752104E-1,-5.032190170E-1,3.750951682E0
1.395423008E1,-3.599569637E0,-9.069768226E-1,-1.133170513E0,3.881183317E0
1.396428508E1,-3.593206989E0,-1.579016613E0,-2.091188266E0,4.447189932E0
1.397433908E1,-3.491149687E0,-1.450365590E0,-3.077437545E0,4.874659816E0
1.398439308E1,-2.974575374E0,-6.117935890E-1,-3.832259876E0,4.889642708E0
1.399444808E1,-2.372221822E0,2.949166006E-1,-4.206840112E0,4.838586147E0
1.400450208E1,-1.817806960E0,1.143348176E0,-4.233281221E0,4.746823896E0
1.401455708E1,-1.129631486E0,2.186518931E0,-4.191991693E0,4.861041728E0
1.402461108E1,-3.997229710E-1,2.917073563E0,-4.028328711E0,4.989642155E0
1.403466508E1,-6.552097499E-2,2.849838769E0,-3.536277328E0,4.542150520E0
1.404472008E1,-2.246111414E-1,2.184426797E0,-2.882617090E0,3.623762118E0
1.405477408E1,-5.949951231E-1,1.151540710E0,-2.380224906E0,2.710264896E0
1.406482808E1,-9.014012101E-1,1.121899420E-1,-2.083647696E0,2.273037274E0
1.407488308E1,-9.661684790E-1,-6.093816125E-1,-1.636457321E0,1.995700389E0
1.408493708E1,-6.239403024E-1,-9.952984303E-1,-6.772069752E-1,1.355923948E0
1.409499208E1,-1.857040608E-1,-1.107238111E0,6.567960995E-1,1.300708788E0
1.410504608E1,2.027902097E-1,-9.609834605E-1,2.031703371E0,2.256641680E0
1.411510008E1,5.620641893E-1,-6.736828583E-1,2.934979491E0,3.063310197E0
1.412515508E1,8.459430009E-1,-2.961971408E-1,2.695074080E0,2.840207141E0
1.413520908E1,8.575438768E-1,6.176004589E-2,1.501009494E0,1.729804990E0
1.414526308E1,6.550460279E-1,3.560580111E-1,2.136595988E-1,7.755727110E-1
1.415531808E1,4.949559876E-1,5.271580660E-1,-8.054510325E-1,1.082417859E0
1.416537208E1,4.621624634E-1,4.104388708E-1,-1.249272827E0,1.393820937E0
1.417542708E1,4.876788354E-1,5.955213726E-2,-1.316824540E0,1.405490652E0
1.418548108E1,6.457279050E-1,-3.430473715E-1,-1.040780997E0,1.271955625E0
1.419553508E1,9.591790098E-1,-5.755589783E-1,-6.377686751E-1,1.287649562E0
1.420559008E1,1.320724048E0,-7.416924083E-1,-4.844172585E-1,1.590308058E0
1.421564408E1,1.581913324E0,-8.030162519E-1,-5.584430087E-1,1.859877270E0
1.422569750E1,1.794471892E0,-8.417552251E-1,-7.914101136E-1,2.134247221E0
1.423575250E1,1.902678711E0,-9.504040933E-1,-1.210663662E0,2.447276184E0
1.424580650E1,1.992177363E0,-1.070691844E0,-1.562367836E0,2.748844289E0
1.425586150E1,2.015497813E0,-1.150765370E0,-1.632639674E0,2.837605448E0
1.426591550E1,2.067922779E0,-1.238006412E0,-1.388917201E0,2.781736056E0
1.427596950E1,2.005757521E0,-1.371346902E0,-9.114990592E-1,2.595088842E0
1.428602450E1,1.908342324E0,-1.506205915E0,-4.872695303E-1,2.479487503E0
1.429607850E1,1.876277363E0,-1.589597150E0,-7.490515312E-2,2.460253366E0
1.430613250E1,1.942491233E0,-1.686429965E0,3.287409890E-1,2.593335469E0
1.431618750E1,2.032512626E0,-1.683250834E0,5.953705509E-1,2.705347859E0
1.432624150E1,2.002531028E0,-1.505406600E0,7.455843151E-1,2.613862185E0
1.433629550E1,1.842221425E0,-1.123170605E0,7.937829137E-1,2.298996150E0
1.434635050E1,1.508664669E0,-6.504752594E-1,9.275566828E-1,1.886676588E0
1.435640450E1,1.228321669E0,-3.007538760E-1,1.020498176E0,1.625005705E0
1.436645950E1,1.017568721E0,-1.340702230E-1,8.435859883E-1,1.328554946E0
1.437651350E1,9.459695649E-1,-6.795341671E-2,6.005347753E-1,1.122549821E0
1.438656750E1,9.764791667E-1,-8.927645802E-2,5.035096236E-1,1.102272103E0
1.439662250E1,1.113175374E0,-1.549056065E-1,5.142205532E-1,1.235952239E0
1.440667650E1,1.293873634E0,-2.935290563E-1,2.976115823E-1,1.359720906E0
1.441673050E1,1.492536879E0,-3.445115143E-1,1.055667277E-1,1.535414879E0
1.442678550E1,1.769424759E0,-2.638439119E-1,1.765052942E-1,1.797673971E0
1.443683950E1,2.023313202E0,-1.597804302E-1,-5.157171115E-3,2.029618854E0
1.444689450E1,2.077199972E0,-8.372686565E-2,-3.047264743E-1,2.101101648E0
1.445694850E1,2.104852039E0,-7.348663688E-2,-4.647004473E-1,2.156791343E0
1.446700250E1,2.218549393E0,-1.166045898E-1,-4.588321817E-1,2.268498405E0
1.447705750E1,2.364523963E0,-6.844633698E-2,-5.285205404E-1,2.423838368E0
1.448711150E1,2.615993997E0,1.497805220E-1,-7.199243939E-1,2.717379239E0
1.449716550E1,3.115066717E0,5.313154364E-1,-7.836474232E-1,3.255770266E0
1.450722050E1,3.975650561E0,1.069058132E0,-4.565600268E-1,4.142116576E0
1.451727450E1,5.131138142E0,1.860089346E0,-5.719168939E-2,5.458184853E0
1.452732950E1,6.313657985E0,2.619830940E0,6.789669871E-2,6.835963814E0
1.453738350E1,7.081210874E0,3.203792952E0,5.514088082E-1,7.791783390E0
1.454743750E1,7.010119842E0,3.283554820E0,6.227647197E-1,7.766038137E0
1.455749250E1,6.762268065E0,3.391924192E0,-6.693834007E-1,7.594833325E0
1.456754650E1,6.890327350E0,3.605346978E0,-1.489357309E0,7.917911531E0
1.457760050E1,6.870348583E0,3.422000515E0,-3.273296173E-1,7.682377357E0
1.458765550E1,5.423382565E0,2.755951197E0,1.720703419E0,6.322117185E0
1.459770950E1,3.327175634E0,1.870994403E0,2.773599848E0,4.718429174E0
1.460776450E1,1.601476646E0,7.716476941E-1,1.386138750E0,2.254228969E0
1.461781850E1,2.905317736E-1,-5.319253010E-1,-9.077685356E-2,6.128569771E-1
1.462787250E1,-6.333139738E-1,-2.330921184E0,4.263862744E-1,2.452770966E0
1.463792750E1,-1.126196246E0,-4.455089500E0,1.582634286E0,4.860130834E0
1.464798150E1,-1.061571942E0,-5.936825402E0,-3.511486888E-1,6.041203211E0
1.465803550E1,-2.940071539E0,-7.956753066E0,2.604403646E0,8.873379196E0
1.466809050E1,-5.702894091E0,-9.510377560E0,5.775589600E0,1.250310832E1
1.467814450E1,-5.512806373E0,-8.614765971E0,1.723106625E0,1.037180424E1
1.468819950E1,-4.296422380E0,-6.755395247E0,-1.383043088E0,8.124494962E0
1.469825350E1,-5.634736022E0,-6.790558648E0,-1.616018379E-1,8.825420780E0
1.470830750E1,-8.032124260E0,-8.866486850E0,1.915146729E0,1.211599753E1
1.471836250E1,-9.336181405E0,-1.168421973E1,1.440978470E0,1.502536831E1
1.472841650E1,-1.107152391E1,-1.520847693E1,1.435524187E0,1.886629646E1
1.473847050E1,-1.318518712E1,-1.924220555E1,1.721334919E0,2.338962650E1
1.474852550E1,-1.387302083E1,-2.248718220E1,3.197456324E-1,2.642416143E1
1.475857950E1,-1.404342272E1,-2.432782253E1,-8.014731717E-1,2.810165529E1
1.476863450E1,-1.372891152E1,-2.347868988E1,-1.290668775E0,2.722861942E1
1.477868850E1,-1.177229985E1,-1.813599187E1,-1.157710108E0,2.165274896E1
1.478874250E1,-8.889016757E0,-1.175931669E1,-1.028998785E0,1.477683953E1
1.479879750E1,-6.875440924E0,-7.876388349E0,-1.514072174E0,1.056416565E1
1.480885150E1,-5.346941915E0,-5.199776852E0,-1.751230563E0,7.661218939E0
1.481890550E1,-3.754959978E0,-3.087345652E0,-1.666236606E0,5.138849291E0
1.482896050E1,-2.034560321E0,-1.063286346E0,-1.512529678E0,2.749137970E0
1.483901450E1,-3.500102359E-1,9.504806918E-1,-1.342638828E0,1.681844146E0
1.484906950E1,1.295329006E0,3.013988239E0,-1.116383084E0,3.465301361E0
1.485912350E1,2.683936889E0,4.950479059E0,-9.398650718E-1,5.709124844E0
1.486917750E1,3.471779031E0,6.333383567E0,-8.752567741E-1,7.275374318E0
1.487923250E1,4.185372645E0,7.678608618E0,-2.726662640E-1,8.749441204E0
1.488928650E1,5.005915341E0,9.088010954E0,1.043804081E0,1.042787891E1
1.489934050E1,5.878157364E0,1.040154877E1,2.739438367E0,1.225762919E1
1.490939550E1,6.472072506E0,1.105962834E1,3.573991284E0,1.330325205E1
1.491944950E1,6.741526821E0,1.097185344E1,2.321182939E0,1.308501594E1
1.492950450E1,6.838116392E0,1.080097675E1,2.032655152E-1,1.278523568E1
1.493955850E1,7.004537505E0,1.057377734E1,-1.384321289E0,1.275870912E1
1.494961250E1,7.298847165E0,1.029168544E1,-1.753175493E0,1.273835089E1
1.495966750E1,7.521007445E0,1.002826954E1,-1.429177619E0,1.261642944E1
1.496972150E1,7.587254645E0,9.973745427E0,-1.263561229E0,1.259518233E1
1.497977550E1,7.540198007E0,9.972012312E0,-6.139120352E-1,1.251688873E1
1.498983050E1,7.730110309E0,1.025552041E1,1.425468146E0,1.292138784E1
1.499988450E1,8.361689706E0,1.126469019E1,5.994362004E0,1.525593247E1
1.500993950E1,8.255221265E0,1.168093593E1,5.987843528E0,1.550636039E1
1.501999350E1,7.416016011E0,1.128865208E1,3.187429519E0,1.387770392E1
1.503004750E1,6.128449184E0,1.039245051E1,1.577100627E0,1.216750440E1
1.504010250E1,4.880936369E0,9.224780837E0,1.247112865E0,1.051072842E1
1.505015650E1,4.147287390E0,8.384688560E0,1.455947342E0,9.466930738E0
1.506021050E1,3.449794085E0,7.865925341E0,1.889418980E0,8.794530390E0
1.507026550E1,3.347894073E0,7.651264114E0,1.874067700E0,8.559343843E0
1.508031950E1,3.849520857E0,7.601362807E0,1.154925663E0,8.598452223E0
1.509037450E1,4.204240732E0,7.621167911E0,3.228095734E-1,8.709882116E0
1.510042850E1,4.382075903E0,7.619610797E0,-3.233931621E-1,8.795774045E0
1.511048250E1,5.421013273E0,7.629529429E0,-8.181213641E-1,9.395021383E0
1.512053750E1,6.096938539E0,7.239302044E0,-1.119237767E0,9.530626779E0
1.513059150E1,6.531601839E0,6.932157746E0,-1.143349346E0,9.592907866E0
1.514064550E1,6.707352769E0,6.450828987E0,-7.698186851E-1,9.337793990E0
1.515070050E1,6.946958218E0,6.272737416E0,-4.911310315E-1,9.372762286E0
1.516075450E1,7.068694324E0,6.282659556E0,-5.530822814E-1,9.473338934E0
1.517080950E1,7.254497203E0,6.529510290E0,-1.028501844E-1,9.760779296E0
1.518086350E1,7.048212698E0,7.065392987E0,4.962110925E-1,9.992162215E0
1.519091750E1,6.189345011E0,7.508486803E0,6.522873116E-1,9.752478888E0
1.520097250E1,5.590873718E0,7.385138034E0,-1.477980235E0,9.379901828E0
1.521102650E1,4.874380471E0,7.209084803E0,-4.214770106E0,9.669269658E0
1.522108150E1,3.671396249E0,6.682842996E0,-2.737150644E0,8.101329185E0
1.523113525E1,1.500985520E0,5.420804527E0,5.599521750E0,7.936795518E0
1.524118925E1,-1.333583829E0,2.495943058E0,1.431097026E1,1.458807895E1
1.525124425E1,2.119614212E0,5.171435983E0,-4.580073735E0,7.225897172E0
1.526129825E1,2.380703793E0,1.412931131E0,-6.165833942E0,6.758818915E0
1.527135225E1,1.661518926E0,-7.019613966E0,-7.038108709E0,1.007822403E1
1.528140725E1,-9.695662960E-2,-1.714313816E1,-1.064459882E0,1.717642749E1
1.529146125E1,-4.919260190E0,-2.874623128E1,1.084857543E1,3.111649920E1
1.530151625E1,-6.105695913E0,-3.215207067E1,-6.053697209E0,3.328186325E1
1.531157025E1,-2.028378762E1,-4.016110019E1,3.253438736E0,4.511020807E1
1.532162425E1,-2.889609776E1,-4.385189077E1,4.354567677E0,5.269663224E1
1.533167925E1,-3.477653963E1,-4.523483680E1,1.541494914E1,5.910345866E1
1.534173325E1,-2.399324018E1,-3.872780964E1,-6.206756265E0,4.597871939E1
1.535178725E1,-1.576198489E1,-3.200066287E1,-1.503760141E1,3.871191094E1
1.536184225E1,-1.303435001E1,-2.533088665E1,-1.005877915E1,3.021137429E1
1.537189625E1,-1.002542312E1,-2.035076864E1,-5.943534497E0,2.345183352E1
1.538195125E1,-8.014907134E0,-1.717147143E1,-6.641173983E-1,1.896151944E1
1.539200525E1,-5.629019784E0,-1.436221643E1,2.422690895E0,1.561501059E1
1.540205925E1,-4.184917731E0,-1.264094583E1,-5.283958631E0,1.432575536E1
1.541211425E1,-2.556132542E0,-1.059564593E1,-5.559916220E0,1.223577519E1
1.542216825E1,-2.423472083E-1,-8.157757536E0,-1.661946504E0,8.328853844E0
1.543222225E1,2.093338287E0,-6.024878038E0,-8.767946649E-1,6.438166621E0
1.544227725E1,3.911701317E0,-3.943428310E0,-1.986307928E0,5.898936617E0
1.545233125E1,5.156309236E0,-1.743197073E0,-1.205367254E0,5.574869612E0
1.546238625E1,6.162015125E0,6.283400398E-1,1.887668324E-1,6.196843916E0
1.547244025E1,7.031215426E0,3.301871808E0,1.429844202E0,7.898405045E0
1.548249425E1,8.059502093E0,6.190955334E0,4.632625000E0,1.116891742E1
1.549254925E1,9.061227783E0,9.363604261E0,1.018441008E1,1.653799088E1
1.550260325E1,8.972382849E0,1.143801453E1,9.724824779E0,1.749011284E1
1.551265825E1,8.638231432E0,1.189276652E1,5.408202024E0,1.566223442E1
1.552271225E1,8.651241487E0,1.201569604E1,3.144025637E0,1.513624220E1
1.553276625E1,8.852999078E0,1.215398971E1,2.065030746E0,1.517759568E1
1.554282125E1,8.890165150E0,1.177158415E1,6.910110819E-1,1.476762425E1
1.555287525E1,8.700475627E0,1.121865740E1,2.658971617E-1,1.419955110E1
1.556292925E1,8.264082136E0,1.080890792E1,5.211436931E-1,1.361613508E1
1.557298425E1,7.627699251E0,1.034852154E1,8.737940200E-1,1.288554267E1
1.558303825E1,6.913153710E0,9.823214707E0,1.179961102E0,1.206977836E1
1.559309325E1,6.412558376E0,9.592715712E0,1.591631835E0,1.164793508E1
1.560314725E1,5.975707632E0,9.766956307E0,2.024621809E0,1.162762274E1
1.561320125E1,5.692735139E0,9.911500647E0,2.231729017E0,1.164584445E1
1.562325625E1,5.641929851E0,9.909906696E0,1.854685642E0,1.155324552E1
1.563331025E1,5.809599929E0,9.819060845E0,1.126873135E0,1.146452137E1
1.564336525E1,5.955340025E0,9.693248060E0,2.849430779E-1,1.138008459E1
1.565341925E1,5.931906139E0,9.456541661E0,-4.729976463E-1,1.117306661E1
1.566347325E1,5.825183344E0,9.066003789E0,-9.193191254E-1,1.081528240E1
1.567352825E1,5.614659022E0,8.552144630E0,-8.757398272E-1,1.026793523E1
1.568358225E1,5.398659368E0,7.893562206E0,-4.516692694E-1,9.573810756E0
1.569363725E1,5.397781116E0,7.264001852E0,3.991730769E-1,9.058758360E0
1.570369125E1,5.408469826E0,6.768074934E0,1.038203618E0,8.725608915E0
1.571374525E1,5.431951075E0,6.729913666E0,9.228672159E-1,8.697672926E0
1.572380025E1,5.634089904E0,6.933008516E0,8.820057765E-1,8.977054657E0
1.573385425E1,5.862164059E0,7.102355576E0,9.942815995E-1,9.262667978E0
1.574390825E1,6.133160285E0,7.273759686E0,9.324040977E-1,9.559948350E0
1.575396325E1,6.399426114E0,7.473850236E0,6.827771059E-1,9.862924339E0
1.576401725E1,6.576413146E0,7.600550044E0,3.366112681E-1,1.005638494E1
1.577407225E1,6.727578873E0,7.589304678E0,-3.054234624E-2,1.014193255E1
1.578412625E1,6.800738651E0,7.342401320E0,-2.417274765E-1,1.001096077E1
1.579418025E1,6.744474403E0,6.854562271E0,-2.451222968E-1,9.619409744E0
1.580423525E1,6.594121438E0,6.340672706E0,1.267407747E-1,9.148914205E0
1.581428925E1,6.371536649E0,5.998177312E0,5.121634662E-1,8.765667217E0
1.582434425E1,6.324082401E0,5.767234513E0,8.179856356E-1,8.597913273E0
1.583439825E1,6.595093830E0,5.263563543E0,1.989330354E0,8.669359784E0
1.584445225E1,7.069331086E0,5.233663806E0,2.476326234E0,9.137771635E0
1.585450725E1,6.818373268E0,5.302622944E0,-1.392777532E0,8.749163009E0
1.586456125E1,6.648922128E0,4.967885635E0,-4.549802699E0,9.465133794E0
1.587461625E1,6.397526354E0,3.891902061E0,-3.616378920E0,8.315854832E0
1.588467025E1,3.497214127E0,-1.764952809E-1,1.237043375E1,1.285648819E1
1.589472425E1,-5.568016952E-1,-2.045604542E0,1.708663885E1,1.721765819E1
1.590477925E1,1.669735872E0,1.465357851E0,-8.662100351E0,8.942442284E0
1.591483325E1,-1.092406064E-2,-1.336194611E0,-5.415313407E0,5.577737415E0
1.592488825E1,-2.838774083E0,-7.618872294E0,7.786327048E-1,8.167748907E0
1.593494225E1,-2.477576661E0,-1.415796383E1,-1.566851627E0,1.445826234E1
1.594499625E1,-2.880304517E0,-2.357359486E1,-2.300284113E0,2.386004685E1
1.595505125E1,-7.299500299E0,-3.332997823E1,1.753845584E0,3.416498395E1
1.596510525E1,-1.672768881E1,-4.060844025E1,8.183827347E0,4.467478061E1
1.597515925E1,-2.636960709E1,-4.658849997E1,7.012040652E0,5.399086239E1
1.598521425E1,-2.784848019E1,-4.976573194E1,-7.827161225E0,5.756240420E1
1.599526825E1,-2.704635681E1,-5.082772196E1,-8.439199812E0,5.819091707E1
1.600532325E1,-1.808554794E1,-4.205759547E1,-4.542602438E0,4.600612587E1
1.601537725E1,-1.021438174E1,-3.043777931E1,3.753266916E0,3.232458842E1
1.602543125E1,-6.879343355E0,-2.371266270E1,6.114082575E-1,2.469796667E1
1.603548625E1,-4.809218515E0,-1.946211348E1,-2.932685044E0,2.026087573E1
1.604554025E1,-4.162591892E0,-1.654050307E1,-3.607735566E0,1.743362179E1
1.605559525E1,-2.993875571E0,-1.359878290E1,-3.402881874E0,1.433421754E1
1.606564925E1,-1.278411841E0,-1.024255363E1,-1.959716545E0,1.050641378E1
1.607570325E1,3.024723727E-1,-7.129824041E0,-8.036074054E-1,7.181341466E0
1.608575825E1,1.824877998E0,-4.882488220E0,-3.167529543E-1,5.221992279E0
1.609581225E1,3.478346624E0,-2.633879460E0,4.363778503E-1,4.384819480E0
1.610586725E1,5.090314052E0,-3.865243435E-2,8.348818962E-1,5.158470600E0
1.611592125E1,6.396484964E0,2.497117764E0,3.073729241E-1,6.873506757E0
1.612597525E1,7.378858709E0,4.961989887E0,-3.059732468E-1,8.897332135E0
1.613603025E1,7.873822006E0,7.495631699E0,8.638106301E-2,1.087147779E1
1.614608425E1,8.444597377E0,9.453042102E0,1.942842797E0,1.282364488E1
1.615613925E1,8.945056472E0,1.077614480E1,3.738188117E0,1.449528828E1
1.616619325E1,8.865905052E0,1.160607286E1,3.643618759E0,1.505261297E1
1.617624725E1,8.394651046E0,1.213631943E1,2.654978553E0,1.499364287E1
1.618630225E1,7.918073149E0,1.247337983E1,2.783519064E0,1.503426304E1
1.619635625E1,7.526359402E0,1.293236287E1,2.912872338E0,1.524391421E1
1.620641125E1,7.137561076E0,1.327806780E1,2.475902896E0,1.527684384E1
1.621646525E1,6.726933925E0,1.319515662E1,1.143183285E0,1.485498793E1
1.622651925E1,6.109138754E0,1.284743090E1,-2.927162933E-1,1.422897536E1
1.623657862E1,5.392829694E0,1.242968008E1,-7.093514585E-1,1.356770941E1
1.624663262E1,4.697724684E0,1.216693545E1,-3.647121095E-1,1.304744995E1
1.625668762E1,4.066377713E0,1.193267377E1,1.114795053E-1,1.260700435E1
1.626674162E1,3.517958586E0,1.178072451E1,4.434996494E-1,1.230277183E1
1.627679562E1,3.082586018E0,1.166455554E1,5.001206139E-1,1.207535975E1
1.628685062E1,2.621192172E0,1.161457705E1,5.588219082E-1,1.191978735E1
1.629690462E1,2.092998564E0,1.159148873E1,6.417096984E-1,1.179639968E1
1.630695962E1,1.500923832E0,1.148319245E1,9.045689392E-1,1.161614076E1
1.631701362E1,4.041066286E-1,1.121290374E1,1.408757388E0,1.130827617E1
1.632706762E1,4.343954980E-2,1.087566207E1,1.597521297E0,1.099245135E1
1.633712262E1,9.516814175E-1,1.087607137E1,9.314819187E-1,1.095729367E1
1.634717662E1,1.599735053E0,1.092564992E1,5.242572623E-1,1.105458385E1
1.635723162E1,2.194688661E0,1.067190181E1,2.218790299E-1,1.089749406E1
1.636728562E1,2.934398570E0,1.020275748E1,-2.181034827E-1,1.061859332E1
1.637733962E1,3.748376305E0,9.865616376E0,-4.759686166E-1,1.056443361E1
1.638739462E1,4.321909223E0,9.750304021E0,-9.278741866E-1,1.070552560E1
1.639744862E1,4.646194634E0,9.629116969E0,-1.194479738E0,1.075796449E1
1.640750262E1,4.808299332E0,9.246532479E0,-8.627093071E-1,1.045764661E1
1.641755762E1,4.846755300E0,8.586139172E0,-6.793762009E-2,9.859890382E0
1.642761162E1,4.808090587E0,8.036709062E0,5.397108686E-1,9.380709752E0
1.643766662E1,4.539030666E0,7.650526780E0,2.784617683E-2,8.895736890E0
1.644772062E1,4.136032377E0,7.381564216E0,-1.395143901E0,8.575586313E0
1.645777462E1,3.877590415E0,7.269781240E0,-1.706833239E0,8.414196718E0
1.646782963E1,3.944818777E0,7.384078519E0,-1.830100147E0,8.569450233E0
1.647788362E1,4.093612874E0,7.489710808E0,-1.949150042E0,8.755148214E0
1.648793862E1,3.938256447E0,7.573828268E0,-2.089655710E0,8.788594852E0
1.649799262E1,3.901125166E0,7.224287564E0,-1.807658533E0,8.406945803E0
1.650804662E1,3.807853598E0,6.916294835E0,-9.483552289E-1,7.951997290E0
1.651810162E1,3.682833695E0,5.710427059E0,7.193289135E0,9.895233691E0
1.652815562E1,1.167567709E0,4.447187573E0,1.843103302E1,1.899588560E1
1.653821062E1,4.283742912E-1,8.303988213E0,-2.866554204E0,8.795274742E0
1.654826462E1,2.792048398E-1,7.494419571E0,-3.899409885E0,8.452791107E0
1.655831862E1,1.217012423E0,3.712160406E0,-7.291874360E0,8.272405079E0
1.656837362E1,4.415972504E0,-5.162952842E0,-1.003826828E1,1.212120973E1
1.657842763E1,8.432843304E0,-1.884100820E1,-1.223154484E1,2.399389767E1
1.658848262E1,1.046607280E1,-3.320672361E1,-1.143474126E1,3.664667079E1
1.659853662E1,5.248756639E0,-4.811226565E1,1.615378810E1,5.102239139E1
1.660859062E1,1.777798557E0,-5.536996070E1,8.041023138E0,5.597902436E1
1.661864562E1,2.949253714E0,-5.530572553E1,-1.603102113E1,5.765774026E1
1.662869962E1,-9.213891567E0,-5.680347812E1,-2.058297093E0,5.758270149E1
