"Time (s)","Linear Acceleration x (m/s^2)","Linear Acceleration y (m/s^2)","Linear Acceleration z (m/s^2)","Absolute acceleration (m/s^2)"
8.303625043E-3,4.795301557E-3,-7.240345187E0,-1.735384901E-1,7.242426184E0
1.835762500E-2,-8.414318740E-2,-6.985225321E0,-8.050051823E-2,6.986195903E0
2.841162507E-2,-1.007948881E-1,-6.799589088E0,3.146211326E-2,6.800408902E0
3.846562502E-2,-1.629309100E-1,-6.632530628E0,1.699421601E-1,6.636707720E0
4.851962498E-2,-3.603948909E-1,-6.477112806E0,3.605654834E-1,6.497144161E0
5.857362505E-2,-6.837862623E-1,-6.380025637E0,5.559496097E-1,6.440603291E0
6.862762501E-2,-1.000861471E0,-6.260409147E0,7.285291564E-1,6.381629972E0
7.868162508E-2,-1.265599422E0,-6.130557105E0,8.865985452E-1,6.322304113E0
8.873562503E-2,-1.556787838E0,-5.987407326E0,1.007039639E0,6.267915418E0
9.878962499E-2,-1.909322902E0,-5.813376061E0,1.071958790E0,6.212081038E0
1.088436251E-1,-2.314109854E0,-5.620990387E0,1.104492844E0,6.178231283E0
1.188976250E-1,-2.700832418E0,-5.377602959E0,1.116791731E0,6.120484712E0
1.289516251E-1,-3.101466678E0,-5.078856432E0,1.114866974E0,6.054486484E0
1.390056250E-1,-3.592656766E0,-4.793501784E0,1.180481066E0,6.105602144E0
1.490596250E-1,-4.095962285E0,-4.543087757E0,1.269737351E0,6.247302326E0
1.591136251E-1,-4.560930535E0,-4.316118726E0,1.367545920E0,6.426597081E0
1.691676250E-1,-4.970115763E0,-4.073910096E0,1.414984526E0,6.580347664E0
1.792216250E-1,-5.296009158E0,-3.817432214E0,1.417979470E0,6.680656217E0
1.892756250E-1,-5.452203491E0,-3.526574166E0,1.390184438E0,6.640471446E0
1.993296250E-1,-5.517432690E0,-3.239691347E0,1.374426631E0,6.544212105E0
2.093836251E-1,-5.611988599E0,-2.981221319E0,1.350361830E0,6.496581690E0
2.194376250E-1,-5.753909293E0,-2.759408655E0,1.376632200E0,6.528163945E0
2.294916250E-1,-5.802035387E0,-2.521214724E0,1.480293540E0,6.497030651E0
2.395456251E-1,-5.662231969E0,-2.266651952E0,1.600735511E0,6.305627337E0
2.495996250E-1,-5.492853334E0,-2.101396919E0,1.723276194E0,6.128375609E0
2.596536251E-1,-5.460390177E0,-1.993342128E0,1.877315828E0,6.108484955E0
2.697076250E-1,-5.514806705E0,-1.897181159E0,1.984161415E0,6.160299170E0
2.797616250E-1,-5.553633386E0,-1.762608660E0,2.064718505E0,6.181641820E0
2.898156251E-1,-5.609321099E0,-1.550598561E0,2.179820945E0,6.214536060E0
2.998696250E-1,-5.641116503E0,-1.274829545E0,2.281808227E0,6.217236891E0
3.099236251E-1,-5.677066355E0,-9.662254894E-1,2.392816885E0,6.236044158E0
3.199776250E-1,-5.745643085E0,-6.206339943E-1,2.568594128E0,6.324181908E0
3.300316250E-1,-5.709785035E0,-2.215489545E-1,2.701611852E0,6.320556596E0
3.400856251E-1,-5.630901418E0,1.877251509E-1,2.713912640E0,6.253608024E0
3.501396250E-1,-5.538565696E0,5.848665762E-1,2.595940971E0,6.144647135E0
3.601936250E-1,-5.494284148E0,1.057961871E0,2.351587583E0,6.069300271E0
3.702476250E-1,-5.439217994E0,1.579406038E0,2.061784957E0,6.027484801E0
3.803016250E-1,-5.231448880E0,2.161755973E0,1.768037800E0,5.930194258E0
3.903556251E-1,-4.960753201E0,2.735807539E0,1.502041528E0,5.860873993E0
4.004096250E-1,-4.559817225E0,3.239185563E0,1.313161698E0,5.745315473E0
4.104636250E-1,-4.179557004E0,3.652018869E0,1.061816356E0,5.650963860E0
4.205176251E-1,-3.918719730E0,3.907263281E0,8.070500998E-1,5.592351968E0
4.305716250E-1,-3.664178739E0,4.072627217E0,5.974182093E-1,5.510844472E0
4.406256251E-1,-3.526729994E0,4.136009865E0,2.661241798E-1,5.441987150E0
4.506796250E-1,-3.342818105E0,4.142672768E0,2.547500297E-2,5.323233934E0
4.607336250E-1,-3.162764209E0,4.217664478E0,-1.176034404E-1,5.273101711E0
4.707876251E-1,-3.012650396E0,4.357995315E0,-2.550662179E-1,5.304078086E0
4.808416250E-1,-2.823709316E0,4.522284533E0,-3.365559389E-1,5.342065293E0
4.908956251E-1,-2.594946944E0,4.649833941E0,-3.767859520E-1,5.338227512E0
5.009496250E-1,-2.317562635E0,4.742008864E0,-3.409341878E-1,5.289043463E0
5.110036250E-1,-2.034466766E0,4.792423557E0,-3.775640702E-1,5.220051072E0
5.210576251E-1,-1.778762178E0,4.809393931E0,-4.144885062E-1,5.144518013E0
5.311116250E-1,-1.538541602E0,4.846544800E0,-3.708812875E-1,5.098397757E0
5.411656250E-1,-1.344107648E0,4.901189954E0,-2.882460970E-1,5.090321616E0
5.512196250E-1,-1.119806702E0,4.984359580E0,-1.442034477E-1,5.110636175E0
5.612736250E-1,-7.859704489E-1,5.092490970E0,-1.054181354E-1,5.153865230E0
5.713276251E-1,-5.331567246E-1,5.049443768E0,-1.780173111E-1,5.080632699E0
5.813817501E-1,-4.103166640E-1,4.921765721E0,-2.334114933E-1,4.944352183E0
5.914357500E-1,-3.331568062E-1,4.814302669E0,-3.054516752E-1,4.835473541E0
6.014897501E-1,-2.811803216E-1,4.727594308E0,-3.859600872E-1,4.751649766E0
6.115437500E-1,-2.278934759E-1,4.697111603E0,-4.386886699E-1,4.723054160E0
6.215977500E-1,-1.166589689E-1,4.651379360E0,-4.689000638E-1,4.676409577E0
6.316517501E-1,-1.773869812E-2,4.498143718E0,-6.037619998E-1,4.538517393E0
6.417057500E-1,-4.305480301E-2,4.257389876E0,-7.935449320E-1,4.330927826E0
6.517597500E-1,-1.322932541E-1,4.013465089E0,-1.004209002E0,4.139304198E0
6.618137500E-1,-2.231531382E-1,3.854775749E0,-1.140071397E0,4.026022378E0
6.718677500E-1,-1.607990152E-1,3.811574181E0,-1.212532578E0,4.003022523E0
6.819217501E-1,-6.344872177E-2,3.803214417E0,-1.257320496E0,4.006160315E0
6.919757500E-1,1.197275877E-2,3.797013445E0,-1.231491590E0,3.991744729E0
7.020297500E-1,4.493643701E-2,3.821417969E0,-1.172521836E0,3.997506977E0
7.120837501E-1,5.304009318E-2,3.784316801E0,-1.077478854E0,3.935076566E0
7.221377500E-1,2.416771173E-2,3.732406390E0,-1.021580495E0,3.869763332E0
7.321917501E-1,-7.485371590E-2,3.665878524E0,-1.041676791E0,3.811739625E0
7.422457500E-1,-1.455003601E-1,3.618685647E0,-1.015210539E0,3.761211055E0
7.522997500E-1,-1.087511945E-1,3.602517511E0,-9.206405962E-1,3.719884184E0
7.623537501E-1,-3.622817874E-2,3.459001696E0,-8.942247762E-1,3.572904023E0
7.724077500E-1,2.874081910E-2,3.234436455E0,-9.046538700E-1,3.358690792E0
7.824617500E-1,-8.833330214E-2,2.959330221E0,-9.383051808E-1,3.105777639E0
7.925157500E-1,-4.094518608E-1,2.679011779E0,-9.274849083E-1,2.864434184E0
8.025697500E-1,-6.493023080E-1,2.484393638E0,-9.143156630E-1,2.725761979E0
8.126237501E-1,-7.018097198E-1,2.451833417E0,-8.408817972E-1,2.685350291E0
8.226777500E-1,-6.605570287E-1,2.520118371E0,-7.452118474E-1,2.709736683E0
8.327317500E-1,-6.840359384E-1,2.527560123E0,-6.282751358E-1,2.692804297E0
8.427857501E-1,-8.176372147E-1,2.404635862E0,-5.219886889E-1,2.592928159E0
8.528397500E-1,-9.926671833E-1,2.234970129E0,-4.900691772E-1,2.494122574E0
8.628937501E-1,-1.223609982E0,2.059941330E0,-4.305189402E-1,2.434322540E0
8.729477500E-1,-1.537279188E0,1.856275207E0,-2.843604760E-1,2.426900457E0
8.830017500E-1,-1.817837951E0,1.612728735E0,-4.968978480E-2,2.430616766E0
8.930557501E-1,-2.056959835E0,1.310356935E0,1.404208839E-1,2.442915693E0
9.031097500E-1,-2.226616212E0,9.872433060E-1,4.476499665E-1,2.476461103E0
9.131637501E-1,-2.230704585E0,7.441558403E-1,6.845392375E-1,2.449164108E0
9.232177500E-1,-2.020160383E0,5.594130617E-1,9.143238491E-1,2.286914744E0
9.332717500E-1,-1.786865834E0,3.420071518E-1,1.097391547E0,2.124647408E0
9.433257501E-1,-1.610202738E0,9.033889711E-2,1.188893893E0,2.003592439E0
9.533797500E-1,-1.541171679E0,-1.822682369E-1,1.183137894E0,1.951473067E0
9.634337500E-1,-1.559431365E0,-4.570935121E-1,1.077020286E0,1.949546962E0
9.734877500E-1,-1.559361198E0,-7.319547477E-1,9.089828561E-1,1.947720445E0
9.835417500E-1,-1.569321930E0,-1.015606687E0,7.056963640E-1,1.998057962E0
9.935957501E-1,-1.596199826E0,-1.249015549E0,4.226624751E-1,2.070395444E0
1.003649750E0,-1.561879009E0,-1.367812553E0,1.098605575E-1,2.079049437E0
1.013703750E0,-1.528104907E0,-1.426637004E0,-2.314620316E-1,2.103324136E0
1.023757750E0,-1.545623749E0,-1.453557293E0,-5.546154213E-1,2.193029832E0
1.033811750E0,-1.523497301E0,-1.466108633E0,-7.424757890E-1,2.240934815E0
1.043865750E0,-1.404217610E0,-1.432952874E0,-8.969511867E-1,2.197658405E0
1.053919750E0,-1.230550042E0,-1.355635434E0,-1.011055653E0,2.091467038E0
1.063973750E0,-1.063982164E0,-1.301909462E0,-1.065846988E0,1.990742599E0
1.074027750E0,-1.012262957E0,-1.340521551E0,-1.027565120E0,1.969153219E0
1.084081750E0,-9.383693540E-1,-1.420365865E0,-9.027675582E-1,1.926905680E0
1.094135750E0,-8.456231582E-1,-1.511999921E0,-8.597418451E-1,1.934005772E0
1.104189750E0,-7.942097604E-1,-1.606929321E0,-8.361347352E-1,1.977906034E0
1.114243750E0,-7.414006323E-1,-1.668936411E0,-7.938209206E-1,1.991274792E0
1.124297750E0,-6.537520391E-1,-1.728376428E0,-7.005882365E-1,1.976233965E0
1.134351750E0,-5.397050214E-1,-1.778585007E0,-5.822617878E-1,1.947735846E0
1.144405750E0,-5.123078924E-1,-1.887666131E0,-4.550807543E-1,2.008193539E0
1.154459750E0,-3.955612153E-1,-2.018391016E0,-4.747402628E-1,2.110864582E0
1.164513750E0,-1.677209491E-1,-2.049474960E0,-6.193745041E-1,2.147580663E0
1.174567750E0,1.565299630E-3,-1.961230974E0,-8.263238382E-1,2.128201229E0
1.184621750E0,1.510078526E-1,-1.821002171E0,-1.078922531E0,2.122009922E0
1.194675750E0,2.944447303E-1,-1.754621802E0,-1.250181192E0,2.174476576E0
1.204729750E0,4.013406032E-1,-1.732562158E0,-1.283439277E0,2.193185420E0
1.214783750E0,4.011365354E-1,-1.717052126E0,-1.151568192E0,2.106012304E0
1.224837750E0,4.359999740E-1,-1.749807497E0,-9.585092112E-1,2.042219910E0
1.234891750E0,5.413287932E-1,-1.740328868E0,-8.388690394E-1,2.006360560E0
1.244945750E0,7.003771520E-1,-1.706818914E0,-8.475916234E-1,2.030312911E0
1.254999750E0,8.835984850E-1,-1.671104559E0,-8.999958318E-1,2.093640186E0
1.265053750E0,1.094710452E0,-1.637435853E0,-9.886478072E-1,2.203862889E0
1.275107750E0,1.230637166E0,-1.601313362E0,-1.103447946E0,2.301362572E0
1.285161750E0,1.268752241E0,-1.612194592E0,-1.126922763E0,2.340696171E0
1.295215750E0,1.276385781E0,-1.660485284E0,-1.118819692E0,2.374474583E0
1.305269750E0,1.242815162E0,-1.700331282E0,-1.100410903E0,2.376261801E0
1.315323750E0,1.167858535E0,-1.676255517E0,-1.064152903E0,2.303507655E0
1.325377750E0,1.062002882E0,-1.663026630E0,-9.765393931E-1,2.201621421E0
1.335431750E0,9.718896872E-1,-1.619600822E0,-8.740501280E-1,2.081259237E0
1.345485750E0,8.404951501E-1,-1.563350753E0,-7.522192968E-1,1.927778915E0
1.355539750E0,6.683741713E-1,-1.541194337E0,-5.635547908E-1,1.771891086E0
1.365593750E0,5.115366447E-1,-1.564352966E0,-3.841217226E-1,1.690094506E0
1.375647750E0,3.733558291E-1,-1.622579539E0,-2.371104419E-1,1.681778909E0
1.385701750E0,2.099887168E-1,-1.712835406E0,-1.223373462E-1,1.729990409E0
1.395755750E0,3.415007830E-2,-1.831964824E0,-1.810239494E-2,1.832372517E0
1.405809750E0,-1.375270969E-1,-1.918979286E0,1.596874595E-3,1.923901701E0
1.415863750E0,-3.600709552E-1,-2.034851220E0,-3.851034701E-2,2.066822108E0
1.425917750E0,-5.413948667E-1,-2.143373496E0,-2.247201920E-2,2.210806038E0
1.435971750E0,-6.453507596E-1,-2.207023216E0,4.342332378E-2,2.299851009E0
1.446025750E0,-6.502630055E-1,-2.263062053E0,1.355033755E-1,2.358527719E0
1.456079750E0,-6.506658787E-1,-2.338509846E0,2.388717695E-1,2.439068287E0
1.466133750E0,-7.747420406E-1,-2.507361501E0,3.598810668E-1,2.648886805E0
1.476187750E0,-9.887735224E-1,-2.787452194E0,5.021752524E-1,2.999957132E0
1.486241750E0,-1.228575438E0,-3.081294953E0,6.496351607E-1,3.380207396E0
1.496295750E0,-1.534067897E0,-3.338557532E0,8.060585582E-1,3.761523774E0
1.506349750E0,-1.790547241E0,-3.565018440E0,9.924822651E-1,4.111014102E0
1.516403750E0,-2.032177581E0,-3.738363533E0,1.155589907E0,4.409137745E0
1.526457750E0,-2.155253284E0,-3.872462407E0,1.337721319E0,4.629317460E0
1.536511750E0,-2.138389914E0,-3.890875582E0,1.532415620E0,4.696799107E0
1.546565750E0,-1.981357090E0,-3.800582293E0,1.687453812E0,4.606267692E0
1.556619750E0,-1.819047155E0,-3.636422298E0,1.805497402E0,4.448856095E0
1.566673750E0,-1.629154149E0,-3.356627767E0,1.878061933E0,4.177105437E0
1.576727750E0,-1.377533256E0,-2.947927566E0,1.935058252E0,3.785805759E0
1.586780625E0,-1.094694080E0,-2.475259702E0,1.991061714E0,3.359998880E0
1.596834625E0,-7.932683587E-1,-1.975233009E0,2.015453959E0,2.931360570E0
1.606888625E0,-4.783595431E-1,-1.445611657E0,2.005514277E0,2.518076336E0
1.616942625E0,-1.142545938E-1,-8.606065021E-1,2.008491095E0,2.188089153E0
1.626996625E0,2.391832799E-1,-2.663204635E-1,2.025456206E0,2.056844203E0
1.637050625E0,5.392173636E-1,2.490323665E-1,2.013652432E0,2.099421016E0
1.647104625E0,8.267992169E-1,6.757874174E-1,1.955254535E0,2.227847812E0
1.657158625E0,1.021895075E0,1.025570050E0,1.886628104E0,2.378114605E0
1.667212625E0,1.155623236E0,1.282425224E0,1.855749543E0,2.534538594E0
1.677266625E0,1.206041438E0,1.358574391E0,1.851260051E0,2.593727838E0
1.687320625E0,1.187616861E0,1.333622275E0,1.839592516E0,2.563802412E0
1.697374625E0,1.220477629E0,1.208137884E0,1.774663864E0,2.469533280E0
1.707428625E0,1.263354676E0,9.187517993E-1,1.680621341E0,2.294484255E0
1.717482625E0,1.252702219E0,4.944763698E-1,1.603263847E0,2.093854029E0
1.727536625E0,1.201112820E0,7.141474910E-2,1.560341776E0,1.970390451E0
1.737590625E0,1.148766791E0,-2.583992039E-1,1.548778322E0,1.945546088E0
1.747644625E0,1.213217726E0,-5.230101243E-1,1.567106420E0,2.049697385E0
1.757698625E0,1.397693287E0,-6.618030703E-1,1.607467411E0,2.230578692E0
1.767752625E0,1.572373007E0,-6.483809330E-1,1.668448023E0,2.382535102E0
1.777806625E0,1.654812316E0,-5.281276806E-1,1.766141548E0,2.477211863E0
1.787860625E0,1.732687288E0,-3.372557044E-1,1.852815410E0,2.559076316E0
1.797914625E0,1.819719000E0,-3.858336411E-2,1.885894278E0,2.620966071E0
1.807968625E0,1.863514060E0,3.282068093E-1,1.935614907E0,2.706844922E0
1.818022625E0,1.894489101E0,6.741901774E-1,1.930611445E0,2.787630158E0
1.828076625E0,1.894223637E0,9.797143581E-1,1.885583206E0,2.846637918E0
1.838130625E0,1.840971290E0,1.261499062E0,1.806803670E0,2.871427289E0
1.848184625E0,1.643749968E0,1.495723465E0,1.821793007E0,2.873679245E0
1.858238625E0,1.343101927E0,1.738378821E0,1.962338437E0,2.945616379E0
1.868292625E0,1.096928301E0,1.943016020E0,2.071935723E0,3.044910605E0
1.878346625E0,8.152965742E-1,2.136821545E0,2.175101073E0,3.156228682E0
1.888400625E0,5.749309874E-1,2.383931164E0,2.272335007E0,3.343228951E0
1.898454625E0,3.778383046E-1,2.654448211E0,2.305644255E0,3.536220089E0
1.908508625E0,1.947081882E-1,2.786229833E0,2.308686562E0,3.623675151E0
1.918562625E0,1.838832378E-2,2.776163852E0,2.241624845E0,3.568235672E0
1.928616625E0,-1.108176005E-1,2.758363173E0,2.075472119E0,3.453756282E0
1.938670625E0,-2.257276672E-1,2.823423972E0,1.817837951E0,3.365592180E0
1.948724625E0,-3.799877411E-1,2.879557242E0,1.429602127E0,3.237283249E0
1.958778625E0,-5.553931010E-1,2.831468279E0,1.095201033E0,3.086282459E0
1.968832625E0,-7.670418423E-1,2.703394083E0,1.008555238E0,2.985611566E0
1.978886625E0,-9.416063726E-1,2.563297720E0,1.084524018E0,2.938249497E0
1.988940625E0,-9.759219271E-1,2.536498176E0,1.202285771E0,2.971823966E0
1.998994625E0,-8.872161573E-1,2.636497551E0,1.229034444E0,3.041183571E0
2.009048625E0,-7.276567519E-1,2.822926666E0,1.079533931E0,3.108664154E0
2.019102625E0,-5.367656261E-1,3.077326448E0,8.238906656E-1,3.230611588E0
2.029156625E0,-4.384511268E-1,3.334527923E0,5.726147591E-1,3.411627694E0
2.039210625E0,-5.373889393E-1,3.485554487E0,2.739044119E-1,3.537357853E0
2.049264625E0,-7.475168198E-1,3.554062804E0,-2.359826602E-2,3.631900424E0
2.059318625E0,-9.320888597E-1,3.578129944E0,-3.043845583E-1,3.710047641E0
2.069372625E0,-1.088301319E0,3.720296514E0,-6.237656169E-1,3.926078127E0
2.079426625E0,-1.230745339E0,3.999283837E0,-9.149489164E-1,4.283239057E0
2.089480625E0,-1.290168253E0,4.363208400E0,-1.142220833E0,4.691139530E0
2.099534625E0,-1.120300791E0,4.675719857E0,-1.383799717E0,5.003232125E0
2.109588625E0,-8.838370514E-1,4.881317022E0,-1.489822016E0,5.179574640E0
2.119642625E0,-7.435956770E-1,5.022098095E0,-1.377544074E0,5.260421226E0
2.129696625E0,-7.230351126E-1,4.971915536E0,-1.172525198E0,5.159218857E0
2.139750625E0,-8.648587435E-1,4.737532235E0,-8.834809560E-1,4.896195556E0
2.149804625E0,-1.047515236E0,4.418848750E0,-5.857065287E-1,4.578926138E0
2.159858625E0,-1.140039822E0,4.006682904E0,-3.640524705E-1,4.181594539E0
2.169912625E0,-1.115969759E0,3.606031103E0,-2.619197394E-1,3.783840742E0
2.179966625E0,-1.116221774E0,3.296020207E0,-1.664933261E-1,3.483880061E0
2.190020625E0,-1.057667756E0,3.069868909E0,-8.637302309E-2,3.248109681E0
2.200074625E0,-8.141569519E-1,2.946524234E0,-9.886062920E-2,3.058533967E0
2.210128625E0,-5.426145959E-1,2.852422069E0,-6.613493264E-2,2.904327132E0
2.220182625E0,-3.457780212E-1,2.735196505E0,7.474027991E-2,2.757979055E0
2.230236625E0,-2.598572803E-1,2.697582828E0,2.191299614E-1,2.718914648E0
2.240290625E0,-2.965947515E-1,2.768096448E0,3.493071082E-1,2.805769386E0
2.250344625E0,-3.335935932E-1,2.870537328E0,4.491950932E-1,2.924559021E0
2.260398625E0,-2.832812262E-1,2.952228193E0,4.573598528E-1,3.000846146E0
2.270452625E0,-2.158107895E-1,3.038315287E0,1.981182843E-1,3.052406417E0
2.280506625E0,-2.397101140E-1,3.089282542E0,-4.093881261E-1,3.125496153E0
2.290560625E0,-1.358354974E-1,3.135244581E0,-1.264764148E0,3.383465415E0
2.300614625E0,3.056398094E-2,3.072498694E0,-2.024093220E0,3.679420572E0
2.310668625E0,8.734395325E-2,2.628651757E0,-2.900527112E0,3.915417800E0
2.320722625E0,3.013491225E-1,1.949192142E0,-3.739513388E0,4.227779758E0
2.330776625E0,1.178833759E-1,1.740858626E0,-3.405495579E0,3.826471663E0
2.340830625E0,-1.872711146E0,-3.879134957E-1,-3.098466471E0,3.641156189E0
2.350884625E0,-2.238117101E0,-2.302087394E0,-2.502130582E0,4.070556715E0
2.360938625E0,-1.323955804E0,-3.267545729E0,-2.375413525E0,4.251153193E0
2.370992625E0,-7.486476713E-1,-4.297760223E0,-2.695330773E0,5.127964922E0
2.381046625E0,4.007038414E-1,-4.321042666E0,-3.537737378E0,5.598889090E0
2.391100625E0,3.862438526E0,3.268262013E0,-3.174914138E0,5.973277805E0
2.401154625E0,-5.185059410E-1,6.942827160E0,3.903028142E-1,6.973093551E0
2.411208625E0,-2.374525625E0,3.615107443E0,3.605622675E0,5.630975816E0
2.421262625E0,-3.801728055E0,2.434176580E0,2.971638025E0,5.404533687E0
2.431316625E0,-4.035015587E0,1.329753611E0,2.163870618E0,4.767801538E0
2.441370625E0,-3.810662016E0,1.048353142E-1,1.263376311E0,4.015999893E0
2.451424625E0,-3.746067824E0,-1.369567010E0,4.913494250E-1,4.018726440E0
2.461478625E0,-3.516000938E0,-2.255260698E0,-1.001566646E-1,4.178336364E0
2.471532625E0,-3.051747803E0,-2.515758103E0,-7.602435771E-1,4.027427688E0
2.481586625E0,-2.434188275E0,-2.383172341E0,-1.199860492E0,3.611709868E0
2.491640625E0,-1.757010536E0,-2.141806004E0,-1.250689315E0,3.039513570E0
2.501694625E0,-1.209434577E0,-1.948705361E0,-9.117276853E-1,2.468082647E0
2.511748625E0,-8.370616651E-1,-1.889278062E0,-3.142875490E-1,2.090172359E0
2.521802625E0,-6.198422813E-1,-1.947767175E0,2.504765922E-1,2.059305695E0
2.531856625E0,-3.557761753E-1,-2.054582649E0,6.247317231E-1,2.176735233E0
2.541910625E0,-1.420774001E-1,-2.240697477E0,8.396133900E-1,2.397052735E0
2.551964625E0,5.782019198E-2,-2.502077957E0,9.243506545E-1,2.667988270E0
2.562018625E0,2.939395308E-1,-2.802120227E0,9.381435053E-1,2.969577655E0
2.572072625E0,5.141404098E-1,-3.051681437E0,8.905707049E-1,3.220281996E0
2.582127750E0,6.987814468E-1,-3.283056930E0,7.400376463E-1,3.437210211E0
2.592181750E0,8.975207055E-1,-3.547357509E0,5.670558111E-1,3.702815282E0
2.602235750E0,1.062445516E0,-3.811058749E0,4.217561567E-1,3.978798502E0
2.612289750E0,1.221506154E0,-4.030976623E0,2.974933223E-1,4.222481746E0
2.622343750E0,1.300995542E0,-4.203797221E0,1.803852873E-1,4.404207004E0
2.632397750E0,1.356727109E0,-4.367944937E0,1.525113179E-1,4.576342548E0
2.642451750E0,1.349268985E0,-4.556122954E0,1.461874080E-1,4.753961919E0
2.652505750E0,1.396315098E0,-4.729403729E0,1.915125386E-1,4.934939973E0
2.662559750E0,1.471207990E0,-4.909337465E0,1.662549059E-1,5.127737121E0
2.672613750E0,1.480362391E0,-5.084142315E0,1.428597575E-1,5.297205377E0
2.682667750E0,1.477605429E0,-5.289325206E0,1.184919249E-1,5.493115625E0
2.692721750E0,1.356118414E0,-5.503240913E0,1.254093271E-1,5.669254377E0
2.702775750E0,1.216601509E0,-5.761577332E0,1.514639354E-1,5.890571611E0
2.712829750E0,1.086077623E0,-5.987879781E0,1.373259526E-1,6.087128000E0
2.722883750E0,9.346446776E-1,-6.146822305E0,1.440321243E-1,6.219142254E0
2.732937750E0,7.446774119E-1,-6.264531434E0,2.059536995E-1,6.311997739E0
2.742991750E0,4.993890542E-1,-6.364137583E0,3.559363890E-1,6.393616137E0
2.753045750E0,2.834642440E-1,-6.411802915E0,5.710724097E-1,6.443422406E0
2.763099750E0,3.599545956E-2,-6.402613431E0,7.877123344E-1,6.450987920E0
2.773153750E0,-2.629563046E-1,-6.338924389E0,9.880056368E-1,6.420846016E0
2.783207750E0,-5.763144386E-1,-6.246267655E0,1.228788276E0,6.392019914E0
2.793261750E0,-1.025682902E0,-6.152510476E0,1.478551508E0,6.410267166E0
2.803315750E0,-1.559265888E0,-6.095636948E0,1.791946480E0,6.542107619E0
2.813369750E0,-2.049064924E0,-6.087863660E0,2.098715825E0,6.757614899E0
2.823423750E0,-2.494029264E0,-6.081307177E0,2.341032628E0,6.977314148E0
2.833477750E0,-2.982784572E0,-6.054334556E0,2.576429397E0,7.224261842E0
2.843531750E0,-3.424956867E0,-5.975003042E0,2.817434669E0,7.441030104E0
2.853585750E0,-3.765100511E0,-5.833975802E0,3.030180933E0,7.575833420E0
2.863639750E0,-3.924341828E0,-5.589462200E0,3.298452941E0,7.584348244E0
2.873693750E0,-3.830139091E0,-5.156536692E0,3.452221849E0,7.292302230E0
2.883747750E0,-3.641918389E0,-4.629855174E0,3.506230826E0,6.855128233E0
2.893801750E0,-3.353250123E0,-4.012514332E0,3.574102381E0,6.333937597E0
2.903855750E0,-2.843232585E0,-3.239118320E0,3.471675535E0,5.534292190E0
2.913909750E0,-2.271606444E0,-2.349797458E0,3.188666790E0,4.566107732E0
2.923963750E0,-1.774414188E0,-1.405358402E0,2.822532856E0,3.618047771E0
2.934017750E0,-1.385602999E0,-5.390475751E-1,2.458598061E0,2.873181579E0
2.944071750E0,-9.551420921E-1,2.713983318E-1,2.099651672E0,2.322604274E0
2.954125750E0,-5.690498579E-1,1.012425656E0,1.711330917E0,2.068206218E0
2.964179750E0,-3.597674847E-1,1.629236594E0,1.367104747E0,2.157039618E0
2.974233750E0,-3.246485227E-1,2.093417370E0,1.121896350E0,2.397174247E0
2.984287750E0,-3.015379876E-1,2.347078502E0,1.004784222E0,2.570854719E0
2.994341750E0,-3.422714460E-1,2.395008714E0,9.821942353E-1,2.611115087E0
3.004395750E0,-5.288636988E-1,2.269876983E0,1.031461120E0,2.548715436E0
3.014449750E0,-7.878602690E-1,1.962119166E0,1.170346671E0,2.416680938E0
3.024503750E0,-1.082200334E0,1.414443659E0,1.369430185E0,2.246585734E0
3.034557750E0,-1.348680755E0,8.123440227E-1,1.596088144E0,2.241950034E0
3.044611750E0,-1.652785671E0,2.375084911E-1,1.838524230E0,2.483602646E0
3.054665750E0,-1.904963218E0,-2.338728386E-1,2.023909033E0,2.789227337E0
3.064719750E0,-2.006644544E0,-5.358413275E-1,2.083360598E0,2.941791909E0
3.074773750E0,-1.961616890E0,-6.444830328E-1,2.074033266E0,2.926587294E0
3.084827750E0,-1.805251234E0,-5.801192218E-1,1.988031687E0,2.747315111E0
3.094881750E0,-1.573793880E0,-3.740832227E-1,1.857300224E0,2.462991993E0
3.104935750E0,-1.360861675E0,-2.755529612E-2,1.742210648E0,2.210882569E0
3.114989750E0,-1.232121189E0,4.372998101E-1,1.733542736E0,2.171295504E0
3.125043750E0,-1.229192904E0,1.014890403E0,1.903682093E0,2.482926345E0
3.135097750E0,-1.328665736E0,1.652896183E0,2.223337678E0,3.072563891E0
3.145151750E0,-1.414640856E0,2.248583032E0,2.627343442E0,3.736344198E0
3.155205750E0,-1.548571916E0,2.765306742E0,3.070825514E0,4.413044945E0
3.165259750E0,-1.693541933E0,3.185570396E0,3.420627004E0,4.971582457E0
3.175313750E0,-1.798036940E0,3.574676286E0,3.712158651E0,5.458147052E0
3.185367750E0,-1.857071013E0,3.949104787E0,3.968805810E0,5.898776222E0
3.195421750E0,-1.905958999E0,4.229982515E0,4.302895832E0,6.327744015E0
3.205475750E0,-1.983844496E0,4.440679914E0,4.693572868E0,6.759060834E0
3.215529750E0,-2.023135446E0,4.609840448E0,5.041733630E0,7.124800627E0
3.225583750E0,-1.963575123E0,4.754276030E0,5.365584008E0,7.432917299E0
3.235637750E0,-1.826953760E0,4.882508393E0,5.582225686E0,7.637924578E0
3.245691750E0,-1.586230908E0,4.990783916E0,5.676770486E0,7.723326727E0
3.255745750E0,-1.270227494E0,5.133439021E0,5.721357844E0,7.790995421E0
3.265799750E0,-9.276280189E-1,5.265774960E0,5.756044697E0,7.856266939E0
3.275853750E0,-5.665484190E-1,5.362611283E0,5.771951462E0,7.898987313E0
3.285907750E0,-2.057699507E-1,5.406555448E0,5.811203821E0,7.939979403E0
3.295961750E0,1.113988137E-1,5.425955340E0,5.778482802E0,7.927437451E0
3.306015750E0,3.773138094E-1,5.399974991E0,5.641621703E0,7.818567072E0
3.316069750E0,5.004444766E-1,5.274885507E0,5.331426913E0,7.516579987E0
3.326123750E0,4.125789517E-1,5.023640006E0,4.970994015E0,7.079404056E0
3.336177750E0,2.859475565E-1,4.738101754E0,4.549469408E0,6.574879933E0
3.346231750E0,6.887961566E-2,4.448386837E0,4.174294510E0,6.100624927E0
3.356285750E0,-1.252496982E-1,4.194162764E0,3.825503418E0,5.678130430E0
3.366339750E0,-3.028986347E-1,3.993428728E0,3.471711788E0,5.300188990E0
3.376393750E0,-4.916865170E-1,3.839880552E0,3.217799957E0,5.033952210E0
3.386447750E0,-5.960283262E-1,3.744462471E0,3.094818978E0,4.894298057E0
3.396501750E0,-6.306052512E-1,3.702223355E0,3.071859301E0,4.851849165E0
3.406555750E0,-7.992839742E-1,3.601208319E0,3.042884009E0,4.781913772E0
3.416609750E0,-1.173867134E0,3.400260859E0,3.084507998E0,4.738557539E0
3.426663750E0,-1.682532796E0,2.989902680E0,3.276896596E0,4.744310903E0
3.436717750E0,-2.134901465E0,2.447709084E0,3.579580053E0,4.833474670E0
3.446771750E0,-2.454909053E0,1.917674480E0,3.778805215E0,4.897287282E0
3.456825750E0,-2.664741649E0,1.429198962E0,3.791277326E0,4.849457856E0
3.466879750E0,-2.743697187E0,1.053908873E0,3.622599188E0,4.664956918E0
3.476933750E0,-2.601636159E0,8.558481842E-1,3.264275966E0,4.261042642E0
3.486987750E0,-2.187432851E0,9.588875261E-1,2.797250665E0,3.678170612E0
3.497041750E0,-1.648234198E0,1.359916180E0,2.179052621E0,3.051936814E0
3.507095750E0,-1.142493314E0,1.943311305E0,1.433938422E0,2.671690326E0
3.517149750E0,-8.688722724E-1,2.555201665E0,7.294196874E-1,2.795719524E0
3.527203750E0,-8.655393595E-1,3.044370663E0,1.934667877E-1,3.170927391E0
3.537257750E0,-1.070639804E0,3.310562232E0,-1.251491261E-1,3.481630967E0
3.547311750E0,-1.321675390E0,3.411091949E0,-2.713523946E-1,3.668242937E0
3.557365750E0,-1.531477581E0,3.334309529E0,-3.206618911E-1,3.683187161E0
3.567419750E0,-1.757047958E0,3.052479874E0,-3.714988265E-1,3.541590361E0
3.577473750E0,-2.053401804E0,2.547597654E0,-3.849761470E-1,3.294680471E0
3.587526917E0,-2.304458440E0,1.913180310E0,-4.944102962E-1,3.035659589E0
3.597580917E0,-2.441620671E0,1.285240220E0,-7.190094508E-1,2.851373092E0
3.607634917E0,-2.373790630E0,7.984372973E-1,-8.969506019E-1,2.660245187E0
3.617688917E0,-2.041244273E0,5.204706055E-1,-1.075262613E0,2.365112581E0
3.627742917E0,-1.562833275E0,2.933688426E-1,-1.343649519E0,2.081803822E0
3.637796917E0,-1.210835570E0,3.767594934E-2,-1.584893796E0,1.994851022E0
3.647850917E0,-9.809943867E-1,-1.778126585E-1,-1.709347834E0,1.978847479E0
3.657904917E0,-6.922273028E-1,-3.635754839E-1,-1.667871195E0,1.842053228E0
3.667958917E0,-2.578183562E-1,-5.026664186E-1,-1.603440726E0,1.700048821E0
3.678012917E0,3.032950759E-3,-6.677403331E-1,-1.804908880E0,1.924469385E0
3.688066917E0,-1.558768290E-1,-9.758225244E-1,-2.117268602E0,2.336525950E0
3.698120917E0,-6.918174130E-1,-1.304774890E0,-2.243663769E0,2.686089343E0
3.708174917E0,-8.981346631E-1,-1.565626782E0,-2.363480819E0,2.973865276E0
3.718228917E0,-7.204693544E-1,-1.964127977E0,-2.731066909E0,3.440290869E0
3.728282917E0,-5.315978569E-1,-2.495404530E0,-3.192079225E0,4.086442196E0
3.738336917E0,-3.431175381E-1,-3.025764823E0,-3.655749977E0,4.757887168E0
3.748390917E0,-3.018157303E-2,-3.480064536E0,-4.135833572E0,5.405264049E0
3.758444917E0,2.026896375E-1,-4.019722195E0,-4.659963073E0,6.157475574E0
3.768498917E0,3.566403937E-1,-4.499140376E0,-4.879617237E0,6.646812836E0
3.778552917E0,3.743890321E-1,-4.676539344E0,-4.741286733E0,6.670081504E0
3.788606917E0,2.654249990E-1,-4.657380357E0,-4.415357670E0,6.423163206E0
3.798660917E0,-1.578531879E-1,-4.820801849E0,-4.291036217E0,6.455853151E0
3.808714917E0,-3.356459659E-1,-5.070504854E0,-4.724070191E0,6.938264686E0
3.818768917E0,1.834505439E-1,-5.093708945E0,-5.056893121E0,7.179950763E0
3.828822917E0,5.749783498E-1,-4.950197223E0,-4.960649121E0,7.031578226E0
3.838876917E0,5.573723835E-1,-4.620167800E0,-4.225819589E0,6.286029405E0
3.848930917E0,7.115997130E-1,-3.967705364E0,-3.673373485E0,5.453689831E0
3.858984917E0,3.240205318E-1,-2.914344082E0,-2.948269043E0,4.158206475E0
3.869038917E0,2.077813929E-1,-2.421215057E0,-2.270413758E0,3.325693024E0
3.879092917E0,4.266222095E-1,-2.200113707E0,-1.519216700E0,2.707494454E0
3.889146917E0,4.199598920E-1,-1.713399662E0,-1.014396168E0,2.034970343E0
3.899200917E0,2.913585699E-1,-1.610021182E0,-7.400652744E-1,1.795760183E0
3.909254917E0,1.242369604E-1,-1.929326958E0,-6.612271196E-1,2.043271552E0
3.919308917E0,4.563576400E-2,-2.254030298E0,-6.756714964E-1,2.353564781E0
3.929362917E0,1.036325419E-1,-2.390667156E0,-6.071089460E-1,2.468726479E0
3.939416917E0,7.629330039E-2,-2.415630966E0,-5.272301330E-1,2.473674442E0
3.949470917E0,-1.089926845E-1,-2.371508608E0,-2.501590884E-1,2.387155641E0
3.959524917E0,-4.217339373E-1,-2.257871626E0,2.324357392E-1,2.308651158E0
3.969578917E0,-8.251158035E-1,-2.135456074E0,8.024413244E-1,2.425881450E0
3.979632917E0,-1.282200252E0,-1.975897253E0,1.362375958E0,2.721079876E0
3.989686917E0,-1.754244218E0,-1.778451544E0,1.851980866E0,3.109677765E0
3.999740917E0,-2.115456550E0,-1.652278717E0,2.227662864E0,3.488217769E0
4.009794917E0,-2.294841524E0,-1.644978761E0,2.333623182E0,3.663065643E0
4.019848917E0,-2.441801934E0,-1.776060179E0,2.257689486E0,3.770139024E0
4.029902917E0,-2.626527171E0,-1.956294024E0,2.075478405E0,3.877285378E0
4.039956917E0,-2.924294289E0,-2.190144351E0,1.891451326E0,4.114099839E0
4.050010917E0,-3.292073629E0,-2.409998197E0,1.751657410E0,4.440061235E0
4.060064917E0,-3.771275171E0,-2.677419874E0,1.721955308E0,4.935202497E0
4.070118917E0,-4.249779140E0,-3.010054232E0,1.802288742E0,5.510834232E0
4.080172917E0,-4.502180051E0,-3.398520143E0,1.853708134E0,5.937659322E0
4.090226917E0,-4.225618445E0,-3.793751283E0,1.911653017E0,5.991895969E0
4.100280917E0,-3.387139415E0,-3.889636557E0,1.976423064E0,5.523425938E0
4.110334917E0,-2.422970392E0,-3.583840919E0,1.978054583E0,4.756826798E0
4.120388917E0,-1.464203026E0,-3.135955018E0,1.894123065E0,3.945352526E0
4.130442917E0,-4.938891631E-1,-2.824845138E0,1.707982802E0,3.337795951E0
4.140496917E0,2.594257557E-1,-2.586499472E0,1.382513769E0,2.944252971E0
4.150550917E0,7.141017365E-1,-2.275498935E0,1.091618444E0,2.622873905E0
4.160604917E0,9.825608557E-1,-1.871585411E0,7.826632637E-1,2.254067339E0
4.170658917E0,1.050462232E0,-1.500787885E0,4.068738234E-1,1.876534435E0
4.180712917E0,9.084532446E-1,-1.255432869E0,-2.793507278E-2,1.549896562E0
4.190766917E0,7.566571873E-1,-1.054608054E0,-4.996977872E-1,1.390836484E0
4.200820917E0,7.910183501E-1,-8.145468150E-1,-9.379088858E-1,1.472708261E0
4.210874917E0,9.720253426E-1,-5.003092597E-1,-1.210471289E0,1.631068166E0
4.220928917E0,1.222348738E0,-1.329193448E-1,-1.280294937E0,1.775094114E0
4.230982917E0,1.508879846E0,1.251983888E-1,-1.234448089E0,1.953523768E0
4.241036917E0,1.760472087E0,8.218407780E-2,-1.085977051E0,2.070111675E0
4.251090917E0,1.948511526E0,-1.817557284E-1,-8.406138486E-1,2.129874164E0
4.261144917E0,1.959582059E0,-5.986525565E-1,-5.863782276E-1,2.131240521E0
4.271198917E0,1.768431317E0,-1.164407070E0,-3.042652752E-1,2.139105071E0
4.281252917E0,1.453063495E0,-1.706473928E0,-7.019304648E-2,2.242403588E0
4.291306917E0,1.162172703E0,-2.153902139E0,7.782644033E-3,2.447447728E0
4.301360917E0,9.287039065E-1,-2.482925402E0,-7.924585193E-2,2.652110368E0
4.311414917E0,6.721122962E-1,-2.679046277E0,-3.321525469E-1,2.781968585E0
4.321468917E0,5.537570500E-1,-2.647967157E0,-5.875874318E-1,2.768327279E0
4.331522917E0,5.700830609E-1,-2.379721169E0,-7.995763350E-1,2.574371739E0
4.341576917E0,6.989492619E-1,-1.841800133E0,-9.509328277E-1,2.187471381E0
4.351630917E0,8.155784100E-1,-1.131694091E0,-1.015217994E0,1.725273089E0
4.361684917E0,8.952666038E-1,-3.789320263E-1,-9.832829869E-1,1.382728175E0
4.371738917E0,8.573105729E-1,3.106885877E-1,-7.952205978E-1,1.209910995E0
4.381792917E0,6.596542186E-1,9.670870766E-1,-4.589795315E-1,1.257403401E0
4.391846917E0,4.155931914E-1,1.628422370E0,-7.378835320E-2,1.682237152E0
4.401900917E0,1.620374554E-1,2.318947548E0,2.724909206E-1,2.340518141E0
4.411954917E0,-1.508207417E-1,3.026708272E0,4.971232581E-1,3.070967501E0
4.422008917E0,-5.254366457E-1,3.715205051E0,6.886710262E-1,3.814852555E0
4.432062917E0,-7.498574603E-1,4.378545354E0,8.650897086E-1,4.525740363E0
4.442116917E0,-7.909943765E-1,4.972316070E0,9.200780940E-1,5.118216770E0
4.452170917E0,-7.516712666E-1,5.507357352E0,9.420174319E-1,5.637676076E0
4.462224917E0,-7.037328690E-1,5.917293363E0,9.390211724E-1,6.032525296E0
4.472278917E0,-6.234757411E-1,6.199988698E0,8.972866707E-1,6.295530575E0
4.482332917E0,-4.796921235E-1,6.422927828E0,8.304952419E-1,6.494138031E0
4.492386917E0,-3.422001100E-1,6.572383829E0,7.390950751E-1,6.622657446E0
4.502440917E0,-2.709535414E-1,6.658809185E0,6.940750229E-1,6.700365342E0
4.512494917E0,-2.405702394E-1,6.704995172E0,7.174831814E-1,6.747563739E0
4.522548917E0,-2.638883507E-1,6.714381123E0,8.549376997E-1,6.773733785E0
4.532602917E0,-3.144351912E-1,6.688419485E0,1.066376014E0,6.780190447E0
4.542656917E0,-3.082915217E-1,6.648554923E0,1.274114138E0,6.776554660E0
4.552710917E0,-3.546722209E-1,6.621125050E0,1.461809907E0,6.789843703E0
4.562764917E0,-4.287728155E-1,6.604768633E0,1.595539237E0,6.808271461E0
4.572818917E0,-4.556150436E-1,6.547535502E0,1.685808991E0,6.776411895E0
4.582872917E0,-4.790401590E-1,6.434555601E0,1.716116863E0,6.676678991E0
4.592927250E0,-4.717030728E-1,6.220614166E0,1.606749811E0,6.442064060E0
4.602981250E0,-5.148093313E-1,5.951642246E0,1.360039410E0,6.126726799E0
4.613035250E0,-7.503930652E-1,5.586702315E0,1.052647775E0,5.734317731E0
4.623089250E0,-1.155176509E0,5.136546232E0,7.868660961E-1,5.323316467E0
4.633143250E0,-1.656876968E0,4.669328558E0,6.274319673E-1,4.994150713E0
4.643197250E0,-2.114368967E0,4.280446617E0,3.897672093E-1,4.790062406E0
4.653251250E0,-2.510053559E0,3.995915256E0,6.511810184E-2,4.719316473E0
4.663305250E0,-2.929302430E0,3.861019114E0,-3.039068408E-1,4.855990186E0
4.673359250E0,-3.333225748E0,3.834682670E0,-6.494210064E-1,5.122199987E0
4.683413250E0,-3.818462201E0,3.752898249E0,-9.411380106E-1,5.436050001E0
4.693467250E0,-4.271531367E0,3.627329293E0,-1.144257565E0,5.719512514E0
4.703521250E0,-4.478790019E0,3.473920574E0,-1.311367626E0,5.817849194E0
4.713575250E0,-4.503640101E0,3.247387453E0,-1.658502494E0,5.794732949E0
4.723629250E0,-4.723231115E0,2.830154994E0,-2.123328071E0,5.901458426E0
4.733683250E0,-5.118495877E0,2.165599055E0,-2.519521955E0,6.102197161E0
4.743737250E0,-5.322036869E0,1.383265867E0,-2.813207717E0,6.176701268E0
4.753791250E0,-5.315470446E0,6.667011367E-1,-3.091060096E0,6.184930798E0
4.763845250E0,-5.069728344E0,1.548561975E-1,-3.422653356E0,6.118879139E0
4.773899250E0,-4.634832909E0,-9.119010553E-2,-3.861860236E0,6.033569111E0
4.783953250E0,-4.140012285E0,-8.999683499E-2,-4.302403497E0,5.971471929E0
4.794007250E0,-3.613748842E0,5.557032958E-2,-4.585990532E0,5.838970621E0
4.804061250E0,-3.074099370E0,3.063571166E-1,-4.727905964E0,5.647746137E0
4.814115250E0,-2.611848906E0,6.260432535E-1,-4.717077798E0,5.428121942E0
4.824169250E0,-2.181266962E0,8.668818802E-1,-4.578160818E0,5.144799921E0
4.834223250E0,-1.772100445E0,9.563545854E-1,-4.330153797E0,4.775477567E0
4.844277250E0,-1.434792700E0,9.177449819E-1,-4.119192104E0,4.457424092E0
4.854331250E0,-1.308847184E0,8.108323713E-1,-4.069636659E0,4.351146127E0
4.864385250E0,-1.336805645E0,6.408148552E-1,-4.086204744E0,4.346810581E0
4.874439250E0,-1.167451569E0,4.374632763E-1,-4.110925603E0,4.295815009E0
4.884493250E0,-9.328232700E-1,2.521688495E-1,-4.164763256E0,4.275394878E0
4.894547250E0,-6.849697387E-1,4.625596172E-2,-4.152168061E0,4.208541643E0
4.904601250E0,-5.878141576E-1,-2.531403278E-1,-4.056314947E0,4.106494425E0
4.914655250E0,-6.820642573E-1,-6.345191581E-1,-3.927587618E0,4.036554311E0
4.924709250E0,-9.446668053E-1,-1.132183941E0,-3.836172833E0,4.109800221E0
4.934763250E0,-1.294509811E0,-1.724397106E0,-3.714847201E0,4.295275399E0
4.944817250E0,-1.693040827E0,-2.336128129E0,-3.539164391E0,4.566132550E0
4.954871250E0,-2.055442482E0,-2.895938217E0,-3.295922266E0,4.845039271E0
4.964925250E0,-2.287462338E0,-3.390047528E0,-2.996288132E0,5.069777979E0
4.974979250E0,-2.348597901E0,-3.800042595E0,-2.658180488E0,5.198284268E0
4.985033250E0,-2.224271479E0,-4.144200937E0,-2.328894539E0,5.248384017E0
4.995087250E0,-2.113053344E0,-4.429193936E0,-2.050556841E0,5.318602891E0
5.005141250E0,-2.341909271E0,-4.748313332E0,-1.781505107E0,5.586123788E0
5.015195250E0,-2.768195851E0,-5.070473864E0,-1.305271904E0,5.922528870E0
5.025249250E0,-3.064401762E0,-5.276965946E0,-7.969117588E-1,6.154022758E0
5.035303250E0,-3.077347498E0,-5.259982123E0,-3.767592010E-1,6.105688090E0
5.045357250E0,-2.891445217E0,-5.066562077E0,-7.264054477E-2,5.834019486E0
5.055411250E0,-2.571057560E0,-4.781008623E0,2.207087097E-1,5.432963534E0
5.065465250E0,-2.145877274E0,-4.511623012E0,5.100704554E-1,5.021922276E0
5.075519250E0,-1.566936266E0,-4.302759592E0,6.888628149E-1,4.630719312E0
5.085573250E0,-9.770814300E-1,-4.127754182E0,7.703718317E-1,4.311208121E0
5.095627250E0,-4.396848893E-1,-3.980829732E0,7.566969484E-1,4.075894801E0
5.105681250E0,-2.100319862E-2,-3.958028222E0,6.665928170E-1,4.013822932E0
5.115735250E0,2.619435668E-1,-4.035483364E0,5.380341795E-1,4.079610422E0
5.125789250E0,4.257784563E-1,-4.222325001E0,4.043308693E-1,4.262956622E0
5.135843250E0,5.138375241E-1,-4.385664631E0,2.681381071E-1,4.423797159E0
5.145897250E0,5.971889985E-1,-4.506016409E0,1.050803125E-1,4.546631770E0
5.155951250E0,7.018056267E-1,-4.619045719E0,-5.878381312E-2,4.672426568E0
5.166005250E0,7.864937747E-1,-4.662879079E0,-2.116464025E-1,4.733477365E0
5.176059250E0,8.706007093E-1,-4.654137492E0,-3.362653323E-1,4.746790048E0
5.186113250E0,9.100349164E-1,-4.607938056E0,-4.164107783E-1,4.715363678E0
5.196167250E0,8.835669100E-1,-4.534279511E0,-4.796677114E-1,4.644401176E0
5.206221250E0,8.983182657E-1,-4.486894260E0,-4.932104476E-1,4.602439826E0
5.216275250E0,9.198670095E-1,-4.437953065E0,-5.225799885E-1,4.562310003E0
5.226329250E0,9.122726458E-1,-4.378330469E0,-5.739423694E-1,4.509038580E0
5.236383250E0,8.612720615E-1,-4.351952802E0,-5.978587970E-1,4.476462654E0
5.246437250E0,7.788444471E-1,-4.350631039E0,-5.842663595E-1,4.458245876E0
5.256491250E0,6.963571912E-1,-4.357689213E0,-5.669431061E-1,4.449246352E0
5.266545250E0,6.100160354E-1,-4.378476942E0,-5.493507345E-1,4.454768919E0
5.276599250E0,5.575296736E-1,-4.401802947E0,-5.385282692E-1,4.469532550E0
5.286653250E0,5.380122524E-1,-4.392471083E0,-5.411142004E-1,4.458257953E0
5.296707250E0,5.357751077E-1,-4.369250035E0,-5.359224576E-1,4.434480096E0
5.306761250E0,6.084583372E-1,-4.324547195E0,-5.670559573E-1,4.403803180E0
5.316815250E0,6.494946814E-1,-4.269083138E0,-5.947349221E-1,4.358970499E0
5.326869250E0,5.421672839E-1,-4.233820335E0,-5.893478823E-1,4.308887434E0
5.336923250E0,3.267383176E-1,-4.265839688E0,-5.680034986E-1,4.315874667E0
5.346977250E0,5.323188186E-2,-4.296217435E0,-5.741024369E-1,4.334733151E0
5.357031250E0,-3.624683136E-1,-4.338932222E0,-6.043524224E-1,4.395788662E0
5.367085250E0,-7.452937084E-1,-4.382263598E0,-6.484532923E-1,4.492236484E0
5.377139250E0,-1.082320787E0,-4.281558757E0,-8.221758235E-1,4.492119407E0
5.387193250E0,-1.446645007E0,-3.985129482E0,-1.128339836E0,4.387161901E0
5.397247250E0,-1.850672990E0,-3.647404246E0,-1.470509833E0,4.346371754E0
5.407301250E0,-2.219024772E0,-3.331483278E0,-1.697060788E0,4.347742758E0
5.417355250E0,-2.605616359E0,-3.040134356E0,-1.898814286E0,4.431382313E0
5.427409250E0,-3.191507367E0,-2.798836430E0,-2.046515100E0,4.712475856E0
5.437463250E0,-4.207734151E0,-2.841762010E0,-1.958652937E0,5.442146574E0
5.447517250E0,-5.454945835E0,-3.120414580E0,-1.515333418E0,6.464491982E0
5.457571250E0,-6.401158644E0,-3.416023491E0,-8.280614845E-1,7.302721020E0
5.467625250E0,-6.676394101E0,-3.347209364E0,-9.730241932E-2,7.469104129E0
5.477679250E0,-6.472176002E0,-2.874425141E0,4.690278985E-1,7.097279004E0
5.487733250E0,-6.129054371E0,-2.132955073E0,8.703288138E-1,6.547692499E0
5.497787250E0,-5.761524707E0,-1.298443087E0,1.235164080E0,6.033800768E0
5.507841250E0,-5.196121758E0,-5.269500513E-1,1.678330402E0,5.485813578E0
5.517895250E0,-4.532738185E0,2.527070857E-1,2.090141614E0,4.997826357E0
5.527949250E0,-3.941877043E0,1.037380476E0,2.389316157E0,4.724762912E0
5.538003250E0,-3.329223914E0,1.830235802E0,2.550868878E0,4.576071131E0
5.548057250E0,-2.702566702E0,2.565712035E0,2.460721185E0,4.465634757E0
5.558111250E0,-2.110828478E0,3.214368518E0,2.187759125E0,4.424257206E0
5.568165250E0,-1.607955653E0,3.795062814E0,1.788669700E0,4.493034881E0
5.578219250E0,-1.243303404E0,4.248278160E0,1.332911984E0,4.622804889E0
5.588273125E0,-1.052396491E0,4.577380799E0,8.435877424E-1,4.771959098E0
5.598327125E0,-8.899134779E-1,4.871962062E0,4.579697174E-1,4.973700493E0
5.608381125E0,-7.400662977E-1,5.088768048E0,2.284086156E-1,5.147371063E0
5.618435125E0,-6.392468512E-1,5.195377407E0,1.928680694E-1,5.238108536E0
5.628489125E0,-5.715974897E-1,5.227023708E0,3.022647782E-1,5.266864772E0
5.638543125E0,-5.829445964E-1,5.200326490E0,5.280222845E-1,5.259470272E0
5.648597125E0,-5.852022064E-1,5.126914113E0,8.432001451E-1,5.228641930E0
5.658651125E0,-5.970878416E-1,5.026191146E0,1.146319731E0,5.189716779E0
5.668705125E0,-6.364284933E-1,4.928279520E0,1.394027667E0,5.161036077E0
5.678759125E0,-6.964144939E-1,4.837657033E0,1.564678656E0,5.131874707E0
5.688813125E0,-7.232953137E-1,4.758168521E0,1.667025980E0,5.093358362E0
5.698867125E0,-6.362489837E-1,4.665439867E0,1.763522580E0,5.028036775E0
5.708921125E0,-4.477563858E-1,4.612063559E0,1.898145365E0,5.007451635E0
5.718975125E0,-2.208657074E-1,4.661711682E0,1.997976047E0,5.076637249E0
5.729029125E0,1.461920857E-2,4.790747745E0,2.079910741E0,5.222787222E0
5.739083125E0,2.326279664E-1,4.916708465E0,2.162584523E0,5.376328647E0
5.749137125E0,3.463949025E-1,4.972274555E0,2.213776896E0,5.453834598E0
5.759191125E0,3.654299283E-1,4.933619782E0,2.220345658E0,5.422552722E0
5.769245125E0,4.029953653E-1,4.903531472E0,2.196469284E0,5.388089037E0
5.779299125E0,4.030497444E-1,4.857996572E0,2.124923776E0,5.317695069E0
5.789353125E0,3.235977781E-1,4.765110628E0,2.081192597E0,5.209832765E0
5.799407125E0,1.699668646E-1,4.672499211E0,2.107522463E0,5.128624429E0
5.809461125E0,-3.282276034E-2,4.586121510E0,2.095900829E0,5.042458539E0
5.819515125E0,-1.879996777E-1,4.538644750E0,1.960756180E0,4.947646394E0
5.829569125E0,-2.387464929E-1,4.600953849E0,1.657987354E0,4.896396458E0
5.839623125E0,-1.408243418E-1,4.701290608E0,1.334538095E0,4.889065023E0
5.849677125E0,-8.009808362E-2,4.737867866E0,1.015298905E0,4.846095282E0
5.859731125E0,-2.971613467E-2,4.627331224E0,7.851992011E-1,4.693571677E0
5.869785125E0,2.121369839E-3,4.406358805E0,6.394000483E-1,4.452508825E0
5.879839125E0,1.058462977E-2,4.108705122E0,5.341818877E-1,4.143298216E0
5.889893125E0,7.319544554E-3,3.819445703E0,3.324949745E-1,3.833897751E0
5.899947125E0,6.955672324E-2,3.555912571E0,8.391339183E-2,3.557582579E0
5.910001125E0,1.987655711E-1,3.271623869E0,-1.833675134E-1,3.282781464E0
5.920055125E0,3.368849909E-1,2.978121125E0,-4.356598122E-1,3.028612951E0
5.930109125E0,4.662482053E-1,2.694455737E0,-7.524325740E-1,2.836130090E0
5.940163125E0,6.701330137E-1,2.478388547E0,-1.033463792E0,2.767586576E0
5.950217125E0,8.659901798E-1,2.348906634E0,-1.273037081E0,2.808544957E0
5.960271125E0,9.469969207E-1,2.213470063E0,-1.405728092E0,2.787888871E0
5.970325125E0,9.536504674E-1,2.019565575E0,-1.433022748E0,2.653610469E0
5.980379125E0,8.128226173E-1,1.789762983E0,-1.337824230E0,2.377752261E0
5.990433125E0,6.059855497E-1,1.533445607E0,-1.097960846E0,1.980957328E0
6.000487125E0,5.140275586E-1,1.314466212E0,-8.962015005E-1,1.671892007E0
6.010541125E0,4.260240394E-1,1.235414341E0,-8.141054964E-1,1.539646984E0
6.020595125E0,3.335193336E-1,1.237043083E0,-7.559968905E-1,1.487629670E0
6.030649125E0,2.283255851E-1,1.251469480E0,-7.636848097E-1,1.483752985E0
6.040703125E0,-1.039108694E-2,1.299375425E0,-9.530469617E-1,1.611453686E0
6.050757125E0,-3.061643046E-1,1.340092219E0,-1.142956340E0,1.787717240E0
6.060811125E0,-5.622711807E-1,1.323688879E0,-1.231672708E0,1.893493804E0
6.070865125E0,-8.035267138E-1,1.296016931E0,-1.175339390E0,1.925289003E0
6.080919125E0,-1.109654766E0,1.227226485E0,-9.600250288E-1,1.912868684E0
6.090973125E0,-1.423112302E0,1.104627184E0,-7.006250008E-1,1.932957638E0
6.101027125E0,-1.885359843E0,8.676972744E-1,-3.898665389E-1,2.111747195E0
6.111081125E0,-2.427614250E0,4.921730784E-1,-2.871216774E-2,2.477169690E0
6.121135125E0,-2.901752104E0,8.032707520E-2,3.071882252E-1,2.919072167E0
6.131189125E0,-3.287490581E0,-2.800871115E-1,6.096366242E-1,3.355249607E0
6.141243125E0,-3.516344170E0,-5.072903967E-1,8.971067226E-1,3.664262592E0
6.151297125E0,-3.428502034E0,-5.312686952E-1,1.130448049E0,3.648943055E0
6.161351125E0,-2.959060664E0,-4.240861259E-1,1.250244634E0,3.240216150E0
6.171405125E0,-2.258570661E0,-2.011887304E-1,1.293649685E0,2.610583813E0
6.181459125E0,-1.738970706E0,4.039534315E-2,1.267920767E0,2.152504116E0
6.191513125E0,-1.417856825E0,1.975348419E-1,1.149394197E0,1.835877178E0
6.201567125E0,-1.152466325E0,3.530164357E-1,8.563984072E-1,1.478586306E0
6.211621125E0,-9.190396285E-1,4.604266443E-1,4.351158750E-1,1.116222361E0
6.221675125E0,-7.602754444E-1,5.216831718E-1,4.689350009E-2,9.232394508E-1
6.231729125E0,-5.240385765E-1,5.758290100E-1,-2.910948604E-1,8.312230123E-1
6.241783125E0,-2.070744646E-1,6.145289165E-1,-5.676810247E-1,8.618511292E-1
6.251837125E0,7.873802125E-2,5.886574723E-1,-8.019964975E-1,9.979557494E-1
6.261891125E0,3.427047247E-1,5.081496450E-1,-9.942635462E-1,1.167999396E0
6.271945125E0,4.680970949E-1,3.694106396E-1,-1.178744296E0,1.320991002E0
6.281999125E0,4.215403944E-1,1.839955775E-1,-1.335211694E0,1.412211367E0
6.292053125E0,3.208630353E-1,-6.282767437E-2,-1.492525184E0,1.527917481E0
6.302107125E0,1.626256853E-1,-4.470932385E-1,-1.603082584E0,1.672188161E0
6.312161125E0,-5.399143517E-2,-9.374006166E-1,-1.666861673E0,1.913129067E0
6.322215125E0,-3.653568381E-1,-1.507068817E0,-1.668742722E0,2.278035187E0
6.332269125E0,-7.513677961E-1,-2.163664504E0,-1.657399124E0,2.827184024E0
6.342323125E0,-1.123364148E0,-2.838544287E0,-1.671955767E0,3.480620170E0
6.352377125E0,-1.518693813E0,-3.487008981E0,-1.665686967E0,4.152129045E0
6.362431125E0,-1.866986722E0,-4.012177240E0,-1.635893649E0,4.717981947E0
6.372485125E0,-2.148204466E0,-4.342646374E0,-1.574139451E0,5.094239390E0
6.382539125E0,-2.315723101E0,-4.404164345E0,-1.469386582E0,5.188288155E0
6.392593125E0,-2.139310851E0,-4.200485358E0,-1.409856665E0,4.920205684E0
6.402647125E0,-1.846743661E0,-3.809147002E0,-1.272788574E0,4.420413305E0
6.412701125E0,-1.612576708E0,-3.328979792E0,-1.042170296E0,3.842997401E0
6.422755125E0,-1.373213918E0,-2.800067854E0,-7.742467815E-1,3.213340089E0
6.432809125E0,-1.092118966E0,-2.286601920E0,-5.213811632E-1,2.587104655E0
6.442863125E0,-8.154614657E-1,-1.811518572E0,-3.400465804E-1,2.015492152E0
6.452917125E0,-5.849308956E-1,-1.367896168E0,-3.571754871E-1,1.529986408E0
6.462971125E0,-3.574397081E-1,-9.932684232E-1,-5.949272954E-1,1.211727607E0
6.473025125E0,-1.163215846E-1,-7.024707475E-1,-9.386425652E-1,1.178153525E0
6.483079125E0,9.350048661E-2,-5.049237362E-1,-1.352248726E0,1.446467054E0
6.493133125E0,2.553040534E-1,-4.623054278E-1,-1.692912334E0,1.773374929E0
6.503187125E0,3.010216784E-1,-6.178337628E-1,-1.916799883E0,2.036284460E0
6.513241125E0,2.930069000E-1,-9.037991533E-1,-2.040804563E0,2.251130653E0
6.523295125E0,2.953153807E-1,-1.248862937E0,-2.141012390E0,2.496157821E0
6.533349125E0,2.874561381E-1,-1.646590253E0,-2.214739202E0,2.774700024E0
6.543403125E0,3.071741188E-1,-1.983683990E0,-2.292534798E0,3.047141925E0
6.553457125E0,3.928866988E-1,-2.257403849E0,-2.320163476E0,3.260888016E0
6.563511125E0,6.040489519E-1,-2.445741203E0,-2.278798080E0,3.396975988E0
6.573565125E0,8.408769733E-1,-2.551435474E0,-2.205715925E0,3.475928624E0
6.583619125E0,1.043789974E0,-2.638339716E0,-2.102810192E0,3.531592370E0
6.593673750E0,1.233729174E0,-2.734713232E0,-1.936545199E0,3.570847441E0
6.603727750E0,1.387040829E0,-2.827284889E0,-1.758001639E0,3.606659377E0
6.613781750E0,1.476676891E0,-2.917700384E0,-1.614688868E0,3.647022116E0
6.623835750E0,1.568391638E0,-2.983437122E0,-1.470315266E0,3.677305586E0
6.633889750E0,1.722798477E0,-3.053143241E0,-1.322045957E0,3.746668354E0
6.643943750E0,1.870972184E0,-3.130031788E0,-1.175401882E0,3.831345128E0
6.653997750E0,1.936468016E0,-3.234658649E0,-1.034273631E0,3.909302610E0
6.664051750E0,1.922568600E0,-3.361409327E0,-8.886202200E-1,3.973032668E0
6.674105750E0,1.877269050E0,-3.525436298E0,-7.453581740E-1,4.063052915E0
6.684159750E0,1.771997534E0,-3.714343171E0,-6.294926722E-1,4.163241703E0
6.694213750E0,1.577157784E0,-3.919880987E0,-5.144596678E-1,4.256472998E0
6.704267750E0,1.361296123E0,-4.105788531E0,-4.025891300E-1,4.344272621E0
6.714321750E0,1.203937610E0,-4.252980783E0,-3.385238193E-1,4.433047449E0
6.724375750E0,1.058518526E0,-4.355742382E0,-2.897073162E-1,4.491868598E0
6.734429750E0,8.940012664E-1,-4.411297948E0,-2.614676034E-1,4.508564423E0
6.744483750E0,7.022049916E-1,-4.390651722E0,-2.037504686E-1,4.451115438E0
6.754537750E0,4.005857277E-1,-4.362446215E0,-1.031372827E-1,4.382013602E0
6.764591750E0,-3.156970203E-2,-4.317275890E0,4.624679804E-2,4.317638998E0
6.774645750E0,-5.952436298E-1,-4.258235384E0,2.403094536E-1,4.306347895E0
6.784699750E0,-1.300344163E0,-4.286344119E0,4.568574308E-1,4.502483710E0
6.794753750E0,-2.063818619E0,-4.430556922E0,8.123238498E-1,4.954699988E0
6.804807750E0,-2.814561932E0,-4.538271697E0,1.251950852E0,5.484984030E0
6.814861750E0,-3.328877174E0,-4.423128034E0,1.671050034E0,5.782550740E0
6.824915750E0,-3.560728045E0,-4.050527666E0,2.049077057E0,5.769252583E0
6.834969750E0,-3.649288804E0,-3.586125426E0,2.317131695E0,5.616645230E0
6.845023750E0,-3.786550437E0,-3.211705404E0,2.577142172E0,5.594164602E0
6.855077750E0,-4.035004478E0,-2.989477880E0,2.915548609E0,5.806777318E0
6.865131750E0,-4.382607415E0,-2.856090027E0,3.285047030E0,6.177056903E0
6.875185750E0,-4.734592840E0,-2.762603281E0,3.664993840E0,6.593976502E0
6.885239750E0,-4.902368168E0,-2.604389320E0,3.929102046E0,6.801022003E0
6.895293750E0,-4.841703306E0,-2.290891730E0,3.972886582E0,6.668890733E0
6.905347750E0,-4.516521517E0,-1.804006362E0,3.771821886E0,6.154676751E0
6.915401750E0,-3.905175825E0,-1.129915660E0,3.318156304E0,5.247596486E0
6.925455750E0,-3.131109138E0,-2.915410030E-1,2.753934492E0,4.180071264E0
6.935509750E0,-2.317948551E0,6.181629610E-1,2.176391553E0,3.239088008E0
6.945563750E0,-1.542185002E0,1.520474729E0,1.644346384E0,2.719200804E0
6.955617750E0,-8.946994239E-1,2.337503979E0,1.156482119E0,2.757147585E0
6.965671750E0,-2.893529749E-1,3.002404027E0,7.291705229E-1,3.103199114E0
6.975725750E0,1.338404274E-1,3.492737791E0,4.245166272E-1,3.520986354E0
6.985779750E0,4.116352111E-1,3.841225997E0,2.249575158E-1,3.869763118E0
6.995833750E0,5.906038642E-1,4.082547896E0,1.015760761E-1,4.126297123E0
7.005887750E0,6.627240068E-1,4.173641961E0,2.618609749E-2,4.226011836E0
7.015941750E0,6.333043259E-1,4.097046067E0,1.363760725E-2,4.145726333E0
7.025995750E0,5.237169796E-1,3.905441873E0,3.821213901E-2,3.940585726E0
7.036049750E0,3.286222905E-1,3.598894868E0,6.890256599E-2,3.614524097E0
7.046103750E0,8.275798202E-2,3.208103519E0,9.998738766E-2,3.210728041E0
7.056157750E0,-1.446513444E-1,2.802529532E0,1.587050541E-1,2.810744222E0
7.066211750E0,-3.762958091E-1,2.449131419E0,2.789256352E-1,2.493520153E0
7.076265750E0,-5.695041865E-1,2.156946930E0,4.046970512E-1,2.267274747E0
7.086319750E0,-6.970670432E-1,1.896917742E0,5.582303162E-1,2.096621203E0
7.096373750E0,-7.448165756E-1,1.711546972E0,7.009175809E-1,1.993848095E0
7.106427750E0,-6.610739225E-1,1.641977970E0,8.355051363E-1,1.957339832E0
7.116481750E0,-4.468547451E-1,1.712342486E0,9.375986910E-1,2.002719965E0
7.126535750E0,-1.980235595E-1,1.878290851E0,1.026101562E0,2.149435802E0
7.136589750E0,9.399165273E-2,2.084251714E0,1.111011904E0,2.363744294E0
7.146643750E0,4.251475418E-1,2.324868146E0,1.199169279E0,2.650239477E0
7.156697750E0,7.192139572E-1,2.585866218E0,1.260081990E0,2.965093495E0
7.166751750E0,9.485686523E-1,2.850161535E0,1.306597175E0,3.275728841E0
7.176805750E0,1.128560568E0,3.068890085E0,1.337684920E0,3.532865163E0
7.186859750E0,1.237632775E0,3.276470334E0,1.300537559E0,3.736092970E0
7.196913750E0,1.258601475E0,3.453678683E0,1.164532712E0,3.855918899E0
7.206967750E0,1.153356271E0,3.555764928E0,9.749436879E-1,3.863186523E0
7.217021750E0,9.259112763E-1,3.593605769E0,8.074769466E-1,3.797806358E0
7.227075750E0,6.235844994E-1,3.627329293E0,6.069121872E-1,3.730243669E0
7.237129750E0,3.485607111E-1,3.695160503E0,3.791159213E-1,3.730875848E0
7.247183750E0,1.093429327E-1,3.812864077E0,2.313299576E-1,3.821439767E0
7.257237750E0,-1.124881500E-1,3.978928218E0,1.691383872E-1,3.984109830E0
7.267291750E0,-2.751904339E-1,4.206080851E0,1.642049452E-1,4.218270874E0
7.277345750E0,-4.824531788E-1,4.470831082E0,2.537171922E-1,4.503938726E0
7.287399750E0,-7.193461043E-1,4.818613821E0,4.308631951E-1,4.891026586E0
7.297453750E0,-8.982498533E-1,5.196801789E0,6.222413939E-1,5.310441223E0
7.307507750E0,-1.068848802E0,5.560237817E0,7.883093351E-1,5.716652337E0
7.317561750E0,-1.138188009E0,5.930240268E0,9.237910029E-1,6.108732388E0
7.327615750E0,-1.066734449E0,6.284191527E0,1.003009081E0,6.452519876E0
7.337669750E0,-8.810835975E-1,6.599117884E0,1.049523169E0,6.739893474E0
7.347723750E0,-7.773551613E-1,6.834280618E0,1.057176590E0,6.959115961E0
7.357777750E0,-7.983946127E-1,6.925263294E0,1.012513730E0,7.044280638E0
7.367831750E0,-9.279613101E-1,6.864831151E0,9.542288301E-1,6.992679857E0
7.377885750E0,-1.198763993E0,6.587321126E0,9.714605016E-1,6.765616767E0
7.387939750E0,-1.542224178E0,6.201490263E0,9.676867086E-1,6.463230961E0
7.397993750E0,-1.872802362E0,5.892469009E0,8.848252308E-1,6.245918299E0
7.408047750E0,-2.100295889E0,5.637605835E0,7.030738878E-1,6.057074811E0
7.418101750E0,-2.286597535E0,5.459178050E0,4.539288528E-1,5.936093384E0
7.428155750E0,-2.377766152E0,5.330570880E0,2.014248848E-1,5.840319321E0
7.438209750E0,-2.373614629E0,5.273899081E0,-6.127882004E-2,5.783754232E0
7.448263750E0,-2.347040203E0,5.260701331E0,-3.471443693E-1,5.770969193E0
7.458317750E0,-2.334190362E0,5.245058275E0,-6.491939883E-1,5.777588925E0
7.468371750E0,-2.524245921E0,5.118243277E0,-9.961550474E-1,5.793147382E0
7.478425750E0,-3.033276449E0,4.645842631E0,-1.239887023E0,5.685238746E0
7.488479750E0,-3.859645895E0,3.849248669E0,-1.277755053E0,5.598771269E0
7.498533750E0,-4.662565668E0,3.058272711E0,-1.255573640E0,5.715681565E0
7.508587750E0,-5.373093587E0,2.414213309E0,-1.295357511E0,6.031294361E0
7.518641750E0,-5.774927110E0,2.017037385E0,-1.370869331E0,6.268772261E0
7.528695750E0,-5.594368599E0,1.938763340E0,-1.516788352E0,6.111989056E0
7.538749750E0,-4.845168951E0,2.175710353E0,-1.621867349E0,5.553362170E0
7.548803750E0,-3.966607842E0,2.690374088E0,-1.759002390E0,5.105504864E0
7.558857750E0,-3.106558433E0,3.184594204E0,-1.845039783E0,4.816276294E0
7.568911750E0,-2.342386404E0,3.454361053E0,-1.823195900E0,4.554495322E0
7.578965750E0,-1.673971887E0,3.527947969E0,-1.770798562E0,4.287694754E0
7.589019625E0,-1.211430232E0,3.458875980E0,-1.735717461E0,4.055132718E0
7.599073625E0,-1.078104944E0,3.197606598E0,-1.729421764E0,3.791819861E0
7.609127625E0,-1.276088743E0,2.685035873E0,-1.745541807E0,3.447424592E0
7.619181625E0,-1.751443986E0,1.913838999E0,-1.747350058E0,3.127869559E0
7.629235625E0,-2.277165391E0,1.050294783E0,-1.683841256E0,3.020583177E0
7.639289625E0,-2.833834940E0,1.612764769E-1,-1.587146874E0,3.252024872E0
7.649343625E0,-3.355055158E0,-7.232607421E-1,-1.540909140E0,3.762167220E0
7.659397625E0,-3.735722346E0,-1.484144516E0,-1.581190901E0,4.319545237E0
7.669451625E0,-3.988781068E0,-2.113215750E0,-1.638128748E0,4.802033008E0
7.679505625E0,-4.259387285E0,-2.582186565E0,-1.720642608E0,5.269789226E0
7.689560625E0,-4.425235956E0,-2.899885672E0,-1.785458409E0,5.583897555E0
7.699614625E0,-4.434342994E0,-3.205247447E0,-1.804161021E0,5.761250383E0
7.709668625E0,-4.430784379E0,-3.548513212E0,-1.786528157E0,5.951090579E0
7.719722625E0,-4.267261730E0,-3.810474320E0,-1.614676443E0,5.944444233E0
7.729776625E0,-3.874758024E0,-3.928847985E0,-1.453069342E0,5.706225263E0
7.739830625E0,-3.276722349E0,-3.968150337E0,-1.329236132E0,5.315072450E0
7.749884625E0,-2.716674864E0,-3.991975987E0,-1.112058118E0,4.955085050E0
7.759938625E0,-2.382871941E0,-3.959152350E0,-7.180861755E-1,4.676388967E0
7.769992625E0,-2.040935540E0,-3.804614241E0,-2.797169097E-1,4.326516953E0
7.780046625E0,-1.582629608E0,-3.495056797E0,1.279334240E-1,3.838815631E0
7.790100625E0,-1.054108556E0,-3.189677773E0,3.652286379E-1,3.379139107E0
7.800154625E0,-6.097833163E-1,-2.971774558E0,4.785337901E-1,3.071200792E0
7.810208625E0,-3.487636095E-1,-2.831227374E0,5.239573002E-1,2.900347522E0
7.820262625E0,-1.070005381E-1,-2.757370608E0,5.161756794E-1,2.807308162E0
7.830316625E0,1.197164780E-1,-2.734970510E0,5.322780342E-1,2.788855613E0
7.840370625E0,3.034886187E-1,-2.765290077E0,5.650999175E-1,2.838709649E0
7.850424625E0,4.627901620E-1,-2.877511886E0,5.267008138E-1,2.961699366E0
7.860478625E0,5.824990386E-1,-3.071102379E0,4.170226894E-1,3.153550836E0
7.870532625E0,6.977225161E-1,-3.327414785E0,2.285699987E-1,3.407455078E0
7.880586625E0,7.740409595E-1,-3.661763254E0,2.549561441E-2,3.742766298E0
7.890640625E0,7.842133605E-1,-4.016137851E0,-1.614445478E-1,4.095170104E0
7.900694625E0,7.956008130E-1,-4.351710435E0,-2.806372614E-1,4.432732976E0
7.910748625E0,8.661386991E-1,-4.649100408E0,-3.605727924E-1,4.742820214E0
7.920802625E0,9.986857224E-1,-4.890370559E0,-4.264182879E-1,5.009483998E0
7.930856625E0,1.142055357E0,-5.068146672E0,-4.635982472E-1,5.215872359E0
7.940910625E0,1.336485218E0,-5.149236444E0,-4.994124430E-1,5.343242600E0
7.950964625E0,1.536186343E0,-5.181085058E0,-5.528175487E-1,5.432229570E0
7.961018625E0,1.741621833E0,-5.164818689E0,-6.052458769E-1,5.484060655E0
7.971072625E0,1.913895425E0,-5.126271504E0,-6.817761357E-1,5.514206555E0
7.981126625E0,2.012084209E0,-5.085766087E0,-7.447031397E-1,5.519790061E0
7.991180625E0,2.014035425E0,-5.091201074E0,-7.878140759E-1,5.531484257E0
8.001234625E0,1.916044861E0,-5.160346738E0,-8.121064796E-1,5.564164205E0
8.011288625E0,1.806140596E0,-5.246211931E0,-8.214474066E-1,5.608891095E0
8.021342625E0,1.706295880E0,-5.347787422E0,-8.043267591E-1,5.670733416E0
8.031396625E0,1.605418546E0,-5.451258581E0,-7.193064894E-1,5.728087870E0
8.041450625E0,1.482186137E0,-5.562964958E0,-5.809740847E-1,5.786275638E0
8.051504625E0,1.363796977E0,-5.672593819E0,-4.045888777E-1,5.848243753E0
8.061558625E0,1.226760462E0,-5.788575096E0,-1.833973342E-1,5.919981204E0
8.071612625E0,1.038414044E0,-5.882714099E0,7.532427058E-2,5.974136142E0
8.081666625E0,8.033010113E-1,-5.915569603E0,3.589399575E-1,5.980643288E0
8.091720625E0,5.480215162E-1,-5.859705305E0,5.691754268E-1,5.912734943E0
8.101774625E0,2.880782819E-1,-5.688147998E0,6.551698427E-1,5.732997843E0
8.111828625E0,-6.431060135E-2,-5.466318085E0,6.768045406E-1,5.508432957E0
8.121882625E0,-7.164786297E-1,-5.430360632E0,7.264953487E-1,5.525391725E0
8.131936625E0,-1.559629000E0,-5.653100957E0,8.922166961E-1,5.931782504E0
8.141990625E0,-2.451758573E0,-6.032104611E0,1.178958889E0,6.617201085E0
8.152044625E0,-3.251241937E0,-6.326590272E0,1.425689317E0,7.254578460E0
8.162098625E0,-3.842721714E0,-6.391693171E0,1.612514142E0,7.630232869E0
8.172152625E0,-4.312656589E0,-6.274293945E0,1.741978952E0,7.810266451E0
8.182206625E0,-4.676623544E0,-5.961720507E0,1.843432237E0,7.798151165E0
8.192260625E0,-4.784329256E0,-5.410418118E0,1.971019798E0,7.486477789E0
8.202314625E0,-4.708307852E0,-4.624871593E0,2.117057663E0,6.931055708E0
8.212368625E0,-4.668044509E0,-3.643729271E0,2.242088091E0,6.332010862E0
8.222422625E0,-4.613899877E0,-2.546698352E0,2.270547513E0,5.738390940E0
8.232476625E0,-4.365430049E0,-1.446159980E0,2.186302584E0,5.091981657E0
8.242530625E0,-4.000402409E0,-4.292418353E-1,1.995976153E0,4.491256928E0
8.252584625E0,-3.615038738E0,4.406007826E-1,1.708996124E0,4.022847484E0
8.262638625E0,-3.170973700E0,1.248861329E0,1.354991071E0,3.667523637E0
8.272692625E0,-2.690519684E0,1.996995469E0,9.743526075E-1,3.489448391E0
8.282746625E0,-2.226229711E0,2.705394708E0,6.562680960E-1,3.564540232E0
8.292800625E0,-1.742289001E0,3.280877965E0,4.218110474E-1,3.738670318E0
8.302854625E0,-1.271479383E0,3.689034375E0,3.170494813E-1,3.914863320E0
8.312908625E0,-8.095721501E-1,3.970725159E0,3.613994426E-1,4.068497869E0
8.322962625E0,-4.770018196E-1,4.136163940E0,4.768486957E-1,4.190795575E0
8.333016625E0,-3.445635545E-1,4.188075812E0,6.993258957E-1,4.260018751E0
8.343070625E0,-4.775713384E-1,4.055206315E0,9.832530930E-1,4.199947534E0
8.353124625E0,-6.642068607E-1,3.784838957E0,1.258552943E0,4.043529670E0
8.363178625E0,-8.772191727E-1,3.441863506E0,1.519930499E0,3.863434560E0
8.373232625E0,-1.099305779E0,3.054967280E0,1.680011476E0,3.655644517E0
8.383286625E0,-1.344588874E0,2.654737648E0,1.706602859E0,3.430458357E0
8.393340625E0,-1.555356440E0,2.294430319E0,1.635294895E0,3.218343291E0
8.403394625E0,-1.702433209E0,2.021920980E0,1.533647482E0,3.055898866E0
8.413448625E0,-1.757952522E0,1.834188812E0,1.439509649E0,2.920074262E0
8.423502625E0,-1.720357264E0,1.707173109E0,1.329649823E0,2.764423591E0
8.433556625E0,-1.564257072E0,1.678221351E0,1.223491868E0,2.600049892E0
8.443610625E0,-1.302135165E0,1.772818483E0,1.177292433E0,2.494886537E0
8.453664625E0,-1.013306685E0,1.912325593E0,1.165064151E0,2.457875930E0
8.463718625E0,-7.149279481E-1,2.092279502E0,1.141494024E0,2.488325560E0
8.473772625E0,-4.239991486E-1,2.356912642E0,1.108170158E0,2.638721959E0
8.483826625E0,-1.914015877E-1,2.662058946E0,1.081106905E0,2.879580619E0
8.493880625E0,3.952717781E-2,2.942447555E0,1.049627250E0,3.124304303E0
8.503935625E0,2.578399909E-1,3.162370984E0,1.047850866E0,3.341416337E0
8.513989625E0,4.239687431E-1,3.353486058E0,1.068277529E0,3.544973218E0
8.524043625E0,4.878308630E-1,3.496222439E0,1.087949317E0,3.693938821E0
8.534097625E0,4.737437510E-1,3.620735973E0,1.075288340E0,3.806626741E0
8.544151625E0,4.408502394E-1,3.788145265E0,1.011279455E0,3.945513860E0
8.554205625E0,4.131823844E-1,3.949606770E0,9.438072646E-1,4.081774794E0
8.564259625E0,4.491018301E-1,4.076950356E0,9.370256639E-1,4.207283417E0
8.574313625E0,4.595858878E-1,4.179800248E0,9.813288474E-1,4.317980501E0
8.584367625E0,4.632748961E-1,4.288734753E0,1.051596007E0,4.440013916E0
8.594425000E0,3.993531346E-1,4.343342485E0,1.180930570E0,4.518705996E0
8.604479000E0,2.890190989E-1,4.404615750E0,1.325077300E0,4.608687643E0
8.614533000E0,1.217267507E-1,4.544903902E0,1.492469051E0,4.785230689E0
8.624587000E0,-3.081775010E-2,4.751472290E0,1.643452345E0,5.027760363E0
8.634641000E0,-7.001748383E-2,4.921614279E0,1.815759265E0,5.246348374E0
8.644695000E0,-6.984031320E-2,5.048242165E0,1.995397425E0,5.428741798E0
8.654749000E0,-1.052457887E-1,5.193538458E0,2.189530832E0,5.637194661E0
8.664803000E0,-1.219126922E-1,5.362185606E0,2.368978372E0,5.863442308E0
8.674857000E0,-9.656442761E-2,5.573099352E0,2.494157903E0,6.106519854E0
8.684911000E0,-1.035670531E-1,5.797466372E0,2.532909740E0,6.327477714E0
8.694965000E0,-1.712456506E-1,5.992692039E0,2.517009991E0,6.502078302E0
8.705019000E0,-2.322929209E-1,6.083419776E0,2.450506099E0,6.562540386E0
8.715073000E0,-3.128833401E-1,6.124325727E0,2.307445782E0,6.552065906E0
8.725127000E0,-4.151809627E-1,6.099832910E0,2.118324609E0,6.470520529E0
8.735181000E0,-5.885877442E-1,5.922081648E0,1.889483299E0,6.244007824E0
8.745235000E0,-8.873114669E-1,5.622876114E0,1.651031506E0,5.927053439E0
8.755289000E0,-1.178360134E0,5.289271411E0,1.432318743E0,5.605038952E0
8.765343000E0,-1.395873633E0,4.983943259E0,1.231444666E0,5.320207662E0
8.775397000E0,-1.508936564E0,4.736675034E0,1.071738496E0,5.085430496E0
8.785451000E0,-1.492032849E0,4.517045135E0,9.934045172E-1,4.859702801E0
8.795505000E0,-1.367396523E0,4.385847357E0,9.078913271E-1,4.682915433E0
8.805559000E0,-1.214966043E0,4.322809987E0,7.960913944E-1,4.560327858E0
8.815613000E0,-1.146412702E0,4.286687643E0,7.043754780E-1,4.492894150E0
8.825667000E0,-1.148643415E0,4.221371028E0,6.162076521E-1,4.418038809E0
8.835721000E0,-1.273414226E0,4.136872330E0,5.726143205E-1,4.366140587E0
8.845775000E0,-1.549699259E0,3.960118602E0,5.172160087E-1,4.283879029E0
8.855829000E0,-1.923519942E0,3.638445435E0,4.555928242E-1,4.140746185E0
8.865883000E0,-2.298255129E0,3.123224167E0,3.881393445E-1,3.897070436E0
8.875937000E0,-2.618190796E0,2.589345312E0,2.636206213E-1,3.691764892E0
8.885991000E0,-2.890477502E0,2.122706074E0,7.000578940E-2,3.586870792E0
8.896045000E0,-3.282037468E0,1.657837665E0,-1.534573243E-1,3.680182715E0
8.906099000E0,-3.736196555E0,1.181499943E0,-3.267833412E-1,3.932161513E0
8.916153000E0,-4.138214266E0,8.046284755E-1,-4.524236333E-1,4.239921159E0
8.926207000E0,-4.388580930E0,6.646911563E-1,-5.641037712E-1,4.474334585E0
8.936261000E0,-4.323021948E0,8.499204232E-1,-7.852331150E-1,4.475206647E0
8.946315000E0,-3.841977949E0,1.410567686E0,-1.033255046E0,4.221150524E0
8.956369000E0,-3.014783460E0,2.198489935E0,-1.194860392E0,3.917903606E0
8.966423000E0,-2.147010464E0,2.940037333E0,-1.168811046E0,3.823557599E0
8.976477000E0,-1.354052008E0,3.524072727E0,-9.705413193E-1,3.898011785E0
8.986531000E0,-5.999980009E-1,3.813837346E0,-7.264212352E-1,3.928490895E0
8.996585000E0,-5.971176624E-2,3.678136627E0,-5.331701732E-1,3.717058646E0
9.006639000E0,-3.419100881E-2,3.171961002E0,-3.637583555E-1,3.192933724E0
9.016693000E0,-4.885594261E-1,2.367134014E0,-1.586456318E-1,2.422226700E0
9.026747000E0,-1.248829608E0,1.313811323E0,-1.158146310E-1,1.816339344E0
9.036801000E0,-1.917994323E0,2.143961653E-1,-1.344267569E-1,1.934615851E0
9.046855000E0,-2.605277220E0,-8.270581023E-1,-1.428140031E-1,2.737131772E0
9.056910000E0,-3.220946344E0,-1.732163085E0,-2.197335403E-1,3.663764066E0
9.066964000E0,-3.581837078E0,-2.472365330E0,-2.746339251E-1,4.360914007E0
9.077018000E0,-3.725095031E0,-3.038901470E0,-3.538683750E-1,4.820423007E0
9.087072000E0,-3.738864055E0,-3.477198815E0,-4.370910645E-1,5.124555066E0
9.097126000E0,-3.615137556E0,-3.747210663E0,-4.927167964E-1,5.230064736E0
9.107180000E0,-3.342163802E0,-3.877074983E0,-5.067618084E-1,5.143790124E0
9.117234000E0,-2.990014070E0,-3.900571142E0,-4.440007192E-1,4.934751869E0
9.127288000E0,-2.664406604E0,-3.836213763E0,-2.596302621E-1,4.677927582E0
9.137342000E0,-2.391864958E0,-3.701845332E0,6.340209022E-2,4.407799527E0
9.147396000E0,-2.191009592E0,-3.517631727E0,4.246393456E-1,4.165882208E0
9.157450000E0,-2.021274278E0,-3.367332849E0,7.725287964E-1,4.002659237E0
9.167504000E0,-1.864038556E0,-3.255390537E0,1.127284633E0,3.917011351E0
9.177558000E0,-1.730995688E0,-3.135301006E0,1.429867152E0,3.856290776E0
9.187612000E0,-1.609371849E0,-3.046749311E0,1.628006925E0,3.810927139E0
9.197666000E0,-1.408732830E0,-3.006702316E0,1.684532543E0,3.723229363E0
9.207720000E0,-1.162629955E0,-2.988732068E0,1.607922909E0,3.587428587E0
9.217774000E0,-9.984021324E-1,-3.004948736E0,1.404384255E0,3.463931128E0
9.227828000E0,-8.391614002E-1,-3.096940641E0,1.105916202E0,3.393859725E0
9.237882000E0,-6.881301588E-1,-3.264091194E0,7.888040096E-1,3.427831122E0
9.247936000E0,-5.291730165E-1,-3.489246418E0,4.597994573E-1,3.558971788E0
9.257990000E0,-3.873622495E-1,-3.780412030E0,1.224294399E-1,3.802177481E0
9.268044000E0,-2.264825428E-1,-4.118733682E0,-1.621305723E-1,4.128140963E0
9.278098000E0,-6.870302975E-2,-4.484484915E0,-4.097945076E-1,4.503693661E0
9.288152000E0,7.683124423E-2,-4.800753500E0,-6.565474467E-1,4.846049088E0
9.298206000E0,2.533885056E-1,-5.072622716E0,-8.952123709E-1,5.157238810E0
9.308260000E0,4.624328971E-1,-5.287127237E0,-1.130835135E0,5.426448812E0
9.318314000E0,6.746219212E-1,-5.457634385E0,-1.313586937E0,5.653883484E0
9.328368000E0,9.209972763E-1,-5.586554965E0,-1.443272333E0,5.843018688E0
9.338422000E0,1.192898067E0,-5.674120528E0,-1.544526958E0,6.000351080E0
9.348476000E0,1.434792116E0,-5.742032429E0,-1.634203219E0,6.140047638E0
9.358530000E0,1.641759576E0,-5.811299715E0,-1.700491495E0,6.273615402E0
9.368584000E0,1.825611239E0,-5.903044283E0,-1.735037576E0,6.417876876E0
9.378638000E0,1.928773665E0,-6.036046804E0,-1.728499220E0,6.568237087E0
9.388692000E0,1.904685475E0,-6.220609488E0,-1.634779901E0,6.707929225E0
9.398746000E0,1.749906753E0,-6.438852720E0,-1.498047002E0,6.838504428E0
9.408800000E0,1.487545111E0,-6.709599854E0,-1.299658869E0,6.994328691E0
9.418854000E0,1.211953558E0,-7.000587711E0,-1.076514648E0,7.185815438E0
9.428908000E0,9.765750611E-1,-7.236215299E0,-9.167878658E-1,7.359144698E0
9.438962000E0,7.623611462E-1,-7.403977178E0,-7.802033401E-1,7.483902045E0
9.449016000E0,5.304471248E-1,-7.505318781E0,-5.993390197E-1,7.547873304E0
9.459070000E0,3.678068215E-1,-7.525552486E0,-4.290255614E-1,7.546740026E0
9.469124000E0,2.579832476E-1,-7.396626059E0,-3.249698272E-1,7.408254707E0
9.479178000E0,2.019195592E-1,-7.102631564E0,-2.452293009E-1,7.109731644E0
9.489233000E0,8.760240018E-2,-6.773724514E0,-2.357468712E-1,6.778391739E0
9.499286000E0,-1.482415348E-1,-6.502217242E0,-2.049989954E-1,6.507136789E0
9.509341000E0,-6.324599880E-1,-6.372673348E0,-1.493302864E-1,6.405721722E0
9.519395000E0,-1.282013142E0,-6.376152442E0,-4.114217877E-2,6.503888862E0
9.529449000E0,-2.067983006E0,-6.531586636E0,8.971792281E-2,6.851731679E0
9.539503000E0,-2.926898639E0,-6.775599132E0,3.034795555E-1,7.386987145E0
9.549557000E0,-3.687753543E0,-6.931253182E0,6.031742084E-1,7.874364481E0
9.559611000E0,-4.327714924E0,-6.963090101E0,8.857917756E-1,8.246112253E0
9.569665000E0,-4.726480413E0,-6.812459394E0,1.080006897E0,8.361556972E0
9.579719000E0,-4.976105651E0,-6.541536258E0,1.254463400E0,8.314265000E0
9.589773625E0,-5.210252139E0,-6.204423811E0,1.514873096E0,8.242356621E0
9.599827625E0,-5.398320814E0,-5.783479832E0,1.896683414E0,8.135595526E0
9.609881625E0,-5.464055797E0,-5.226463544E0,2.252798290E0,7.889672177E0
9.619935625E0,-5.468119027E0,-4.494632758E0,2.433628258E0,7.484957970E0
9.629989625E0,-5.349911131E0,-3.672531779E0,2.625900350E0,7.000313666E0
9.640043625E0,-5.018049483E0,-2.710991955E0,2.632836902E0,6.281888899E0
9.650097625E0,-4.575957295E0,-1.657101354E0,2.506063419E0,5.474095717E0
9.660151625E0,-3.914618493E0,-4.943428340E-1,2.230731921E0,4.532634740E0
9.670205625E0,-3.107807398E0,6.862341991E-1,1.857063997E0,3.684843401E0
9.680259625E0,-2.477861128E0,1.768164099E0,1.569705069E0,3.424934168E0
9.690313625E0,-1.997534582E0,2.623693610E0,1.441610554E0,3.598910051E0
9.700367625E0,-1.701475435E0,3.261216702E0,1.482906661E0,3.966051588E0
9.710421625E0,-1.548510520E0,3.675232607E0,1.642243726E0,4.313024925E0
9.720475625E0,-1.438667650E0,3.911480293E0,1.811215394E0,4.544220933E0
9.730529625E0,-1.462777475E0,4.023174976E0,2.037864583E0,4.741154594E0
9.740583625E0,-1.586617409E0,3.985904238E0,2.314289364E0,4.874497170E0
9.750637625E0,-1.767405716E0,3.829772178E0,2.593116766E0,4.951275842E0
9.760691625E0,-1.997189596E0,3.599023215E0,2.786252638E0,4.970406235E0
9.770745625E0,-2.276792924E0,3.286104206E0,2.943992974E0,4.964812333E0
9.780799625E0,-2.501727709E0,2.931338138E0,3.051934914E0,4.915861219E0
9.790853625E0,-2.598507314E0,2.613325912E0,3.068829859E0,4.795772022E0
9.800907625E0,-2.562709490E0,2.403676626E0,3.034473959E0,4.642539549E0
9.810961625E0,-2.372265676E0,2.333056879E0,2.958513950E0,4.452370563E0
9.821015625E0,-2.083914914E0,2.363552740E0,2.909549950E0,4.288888415E0
9.831069625E0,-1.762937273E0,2.459645590E0,2.894475244E0,4.187575814E0
9.841123625E0,-1.422381985E0,2.612143605E0,2.901735731E0,4.155302033E0
9.851177625E0,-1.107148064E0,2.864899735E0,2.956629392E0,4.263224682E0
9.861231625E0,-7.587744641E-1,3.156914070E0,2.943757916E0,4.382642559E0
9.871285625E0,-4.311649114E-1,3.440958942E0,2.895038331E0,4.517449342E0
9.881339625E0,-1.863981253E-1,3.702313987E0,2.838514466E0,4.668943938E0
9.891393625E0,3.164513111E-2,3.904600459E0,2.828348497E0,4.821458429E0
9.901447625E0,2.153985608E-1,4.050243199E0,2.813690697E0,4.936367272E0
9.911501625E0,3.312950528E-1,4.152903641E0,2.771849191E0,5.003949740E0
9.921556625E0,3.521684432E-1,4.200157914E0,2.695496249E0,5.003103951E0
9.931610625E0,2.773129731E-1,4.183821378E0,2.613270364E0,4.940692847E0
9.941664625E0,1.609715080E-1,4.156846711E0,2.542406788E0,4.875358313E0
9.951718625E0,5.061408341E-2,4.140592621E0,2.519040145E0,4.846919876E0
9.961772625E0,-3.958974302E-2,4.177192390E0,2.565758228E0,4.902409499E0
9.971826625E0,-1.415546590E-1,4.280448079E0,2.716844434E0,5.071835679E0
9.981880625E0,-3.288778138E-1,4.423945183E0,2.942088536E0,5.323094640E0
9.991934625E0,-4.376892346E-1,4.591995038E0,3.181846597E0,5.603761064E0
1.000198863E1,-4.732578474E-1,4.805812219E0,3.387201980E0,5.898554173E0
1.001204262E1,-5.146584731E-1,5.110543664E0,3.529324404E0,6.232067123E0
1.002209663E1,-5.320328897E-1,5.483314186E0,3.607699313E0,6.585232554E0
1.003215063E1,-4.902656436E-1,5.889400975E0,3.644161381E0,6.943004854E0
1.004220462E1,-3.686821496E-1,6.253142227E0,3.642766235E0,7.246203149E0
1.005225863E1,-3.256940049E-1,6.588181837E0,3.573636943E0,7.502072880E0
1.006231262E1,-3.599972802E-1,6.829223946E0,3.467529860E0,7.667572046E0
1.007236663E1,-5.438694084E-1,6.910793189E0,3.329260751E0,7.690177735E0
1.008242063E1,-9.076474983E-1,6.835209156E0,3.121754762E0,7.568966969E0
1.009247462E1,-1.415658857E0,6.618190917E0,2.845893652E0,7.341910629E0
1.010252863E1,-1.836687035E0,6.306918485E0,2.458869957E0,7.014034609E0
1.011258263E1,-2.147323875E0,6.065917890E0,2.035489444E0,6.749042669E0
1.012263663E1,-2.370194592E0,5.991390449E0,1.694176941E0,6.662193139E0
1.013269063E1,-2.508261972E0,6.033816676E0,1.408008360E0,6.684370527E0
1.014274462E1,-2.543309013E0,6.110830353E0,1.231247030E0,6.732506041E0
1.015279863E1,-2.442791283E0,6.224790248E0,1.116891865E0,6.779578919E0
1.016285263E1,-2.355063753E0,6.229835225E0,1.004223620E0,6.735401792E0
1.017290663E1,-2.479902976E0,6.042593347E0,7.789467734E-1,6.577964062E0
1.018296063E1,-2.923617182E0,5.634355953E0,5.800338525E-1,6.374162196E0
1.019301462E1,-3.585193965E0,5.037542346E0,4.512758249E-1,6.199524056E0
1.020306863E1,-4.278831031E0,4.481991954E0,2.905375842E-1,6.203310323E0
1.021312263E1,-4.801280335E0,3.974198405E0,9.783334650E-2,6.233467508E0
1.022317662E1,-5.256480226E0,3.500546455E0,-1.592934302E-1,6.317419113E0
1.023323063E1,-5.560371718E0,3.073204161E0,-3.710409164E-1,6.363960152E0
1.024328463E1,-5.627905889E0,2.766357194E0,-5.041282956E-1,6.291279851E0
1.025333863E1,-5.441721772E0,2.653667900E0,-6.549624127E-1,6.089603019E0
1.026339263E1,-5.003228545E0,2.712037730E0,-7.874797614E-1,5.745221397E0
1.027344662E1,-4.399633337E0,2.899715518E0,-8.856574358E-1,5.343174401E0
1.028350063E1,-3.766858184E0,3.143203226E0,-9.360288598E-1,4.994506695E0
1.029355463E1,-3.152349148E0,3.385729944E0,-9.871275312E-1,4.730210690E0
1.030360863E1,-2.665284855E0,3.549564541E0,-1.014466334E0,4.553272860E0
1.031366263E1,-2.345886548E0,3.550017700E0,-9.708197929E-1,4.364435867E0
1.032371662E1,-2.060761694E0,3.360425241E0,-1.014473205E0,4.070424111E0
1.033377063E1,-1.838992592E0,3.023147317E0,-1.102446903E0,3.706305793E0
1.034382563E1,-1.765123547E0,2.509412704E0,-1.248121510E0,3.312192712E0
1.035387962E1,-1.812647377E0,1.780899335E0,-1.443651378E0,2.922571172E0
1.036393363E1,-1.878682323E0,9.975724125E-1,-1.653305781E0,2.694070896E0
1.037398763E1,-1.961977664E0,2.036789864E-1,-1.811006795E0,2.677795192E0
1.038404163E1,-2.155177270E0,-6.343579211E-1,-1.946863196E0,2.972789152E0
1.039409563E1,-2.515269275E0,-1.479770799E0,-2.004587786E0,3.540434060E0
1.040414962E1,-2.921539666E0,-2.340661768E0,-2.001692537E0,4.245098885E0
1.041420363E1,-3.307243645E0,-3.182504994E0,-1.978670880E0,4.998133353E0
1.042425763E1,-3.694355049E0,-3.974728455E0,-1.954124853E0,5.767610377E0
1.043431163E1,-3.913836136E0,-4.616052237E0,-1.955373234E0,6.359994971E0
1.044436563E1,-3.878455219E0,-5.065072791E0,-1.991230114E0,6.682991443E0
1.045441962E1,-3.637034209E0,-5.287292129E0,-1.999673494E0,6.721768367E0
1.046447363E1,-3.293671088E0,-5.359927411E0,-1.942762251E0,6.584179239E0
1.047452763E1,-2.911345046E0,-5.362790208E0,-1.865364996E0,6.380833438E0
1.048458162E1,-2.526293616E0,-5.247335765E0,-1.672230002E0,6.059129083E0
1.049463563E1,-2.183337461E0,-4.974262024E0,-1.382639922E0,5.605527478E0
1.050468962E1,-1.859882939E0,-4.556496884E0,-9.760912040E-1,5.017328217E0
1.051474363E1,-1.535130336E0,-4.107127251E0,-5.821473286E-1,4.423122757E0
1.052479763E1,-1.190236999E0,-3.730475054E0,-1.818796894E-1,3.919973019E0
1.053485162E1,-8.718186843E-1,-3.373506047E0,1.859287401E-1,3.489295110E0
1.054490563E1,-5.457487035E-1,-3.096409421E0,5.080281691E-1,3.184915316E0
1.055495963E1,-2.739952630E-1,-2.951466885E0,7.792056589E-1,3.064864049E0
1.056501363E1,-9.255382240E-2,-2.895471902E0,9.914560787E-1,3.061912621E0
1.057506763E1,-7.256394625E-3,-2.964529273E0,1.169619716E0,3.186925908E0
1.058512162E1,8.297199011E-2,-3.154801471E0,1.282964922E0,3.406707452E0
1.059517550E1,1.944327843E-1,-3.420070934E0,1.263017146E0,3.651013778E0
1.060522950E1,3.114191973E-1,-3.733632551E0,1.144563082E0,3.917527101E0
1.061528350E1,3.813787937E-1,-4.094310447E0,9.986196488E-1,4.231556336E0
1.062533750E1,4.286962169E-1,-4.471568708E0,8.679226846E-1,4.575149937E0
1.063539150E1,5.119675845E-1,-4.823839770E0,7.323409563E-1,4.905900958E0
1.064544550E1,5.693895811E-1,-5.138343666E0,5.728271592E-1,5.201433560E0
1.065549950E1,6.220852733E-1,-5.433038657E0,3.903069073E-1,5.482448232E0
1.066555350E1,6.476621640E-1,-5.682266868E0,1.949454390E-1,5.722379467E0
1.067560750E1,7.192993265E-1,-5.892733887E0,-6.325371712E-3,5.936475739E0
1.068566150E1,8.811356378E-1,-6.049624624E0,-2.031825578E-1,6.116832616E0
1.069571550E1,1.035282276E0,-6.144760576E0,-4.410589850E-1,6.246953254E0
1.070577050E1,1.196979423E0,-6.192762709E0,-6.089582741E-1,6.336710494E0
1.071582450E1,1.369352417E0,-6.193398886E0,-7.725787170E-1,6.389850833E0
1.072587850E1,1.510819952E0,-6.181705039E0,-9.128465500E-1,6.428790162E0
1.073593250E1,1.564675148E0,-6.177678646E0,-9.967872776E-1,6.450233070E0
1.074598650E1,1.566001296E0,-6.209689229E0,-1.052190815E0,6.489969637E0
1.075604050E1,1.494418513E0,-6.255015675E0,-1.060488745E0,6.517909493E0
1.076609450E1,1.403349883E0,-6.300488302E0,-9.911387211E-1,6.530535942E0
1.077614850E1,1.307836785E0,-6.351454972E0,-8.430772805E-1,6.539281047E0
1.078620250E1,1.214252098E0,-6.414207875E0,-6.389859192E-1,6.559327239E0
1.079625650E1,1.141829655E0,-6.447105480E0,-3.981046079E-1,6.559529808E0
1.080631050E1,1.017133103E0,-6.458756057E0,-1.108491755E-1,6.539294847E0
1.081636450E1,8.180740017E-1,-6.405976750E0,1.893726039E-1,6.460777443E0
1.082641850E1,6.557283980E-1,-6.275734699E0,5.928673214E-1,6.337690226E0
1.083647250E1,4.599595249E-1,-6.108638817E0,9.115791661E-1,6.193384175E0
1.084652650E1,1.031840605E-1,-5.973559365E0,1.228524713E0,6.099453369E0
1.085658050E1,-4.757031530E-1,-5.924519352E0,1.505759187E0,6.131356601E0
1.086663450E1,-1.195312382E0,-5.970224698E0,1.721554189E0,6.327408905E0
1.087668850E1,-2.047708370E0,-6.157798698E0,1.972778056E0,6.782584141E0
1.088674250E1,-2.930061983E0,-6.455543597E0,2.229707197E0,7.431749494E0
1.089679650E1,-3.684886653E0,-6.734343517E0,2.463920782E0,8.062299788E0
1.090685050E1,-4.395381242E0,-6.883051659E0,2.659134169E0,8.588758405E0
1.091690450E1,-4.848006604E0,-6.856754392E0,2.815084088E0,8.856802315E0
1.092695850E1,-5.021927356E0,-6.648587667E0,2.905560395E0,8.824157385E0
1.093701250E1,-4.950930464E0,-6.234367402E0,2.933965584E0,8.484527294E0
1.094706650E1,-4.709918759E0,-5.643139640E0,2.925350296E0,7.911133552E0
1.095712050E1,-4.555508997E0,-4.945455131E0,2.871246595E0,7.311241049E0
1.096717450E1,-4.495190290E0,-4.113937796E0,2.823560212E0,6.715929735E0
1.097722850E1,-4.379646969E0,-3.157331853E0,2.735166684E0,6.052370510E0
1.098728250E1,-4.094507498E0,-2.057944506E0,2.568629796E0,5.253378558E0
1.099733650E1,-3.702017241E0,-8.075596847E-1,2.354611617E0,4.461085088E0
1.100739050E1,-3.204422112E0,4.514143308E-1,2.107192680E0,3.861652102E0
1.101744450E1,-2.689806324E0,1.601782748E0,1.895270873E0,3.659619886E0
1.102749850E1,-2.158780909E0,2.693053282E0,1.719287809E0,3.856011095E0
1.103755250E1,-1.609601060E0,3.628031544E0,1.604783539E0,4.281209953E0
1.104760750E1,-1.100866401E0,4.333304862E0,1.542035752E0,4.729409278E0
1.105766150E1,-7.766651899E-1,4.756241864E0,1.619634297E0,5.084118482E0
1.106771550E1,-6.875477761E-1,4.922655083E0,1.772167542E0,5.276915084E0
1.107776950E1,-7.578354013E-1,4.910877621E0,1.978308937E0,5.348339907E0
1.108782350E1,-9.539124227E-1,4.738926796E0,2.174231007E0,5.300439280E0
1.109787750E1,-1.200644458E0,4.440493096E0,2.398596712E0,5.187754064E0
1.110793150E1,-1.463989602E0,4.057132388E0,2.601204634E0,5.036849642E0
1.111798550E1,-1.689652950E0,3.667083343E0,2.744301789E0,4.881968829E0
1.112803950E1,-1.825433484E0,3.313361879E0,2.812838758E0,4.714089119E0
1.113809350E1,-1.868649670E0,3.046115473E0,2.764584026E0,4.518140757E0
1.114814750E1,-1.854471341E0,2.848398892E0,2.635354713E0,4.300876035E0
1.115820150E1,-1.789994094E0,2.720995664E0,2.486922559E0,4.097887270E0
1.116825550E1,-1.676399651E0,2.660930142E0,2.322718125E0,3.909716677E0
1.117830950E1,-1.525804027E0,2.703927057E0,2.166668803E0,3.785994343E0
1.118836350E1,-1.299046081E0,2.811557340E0,2.037198585E0,3.707095018E0
1.119841750E1,-1.039082381E0,2.927427227E0,1.935901421E0,3.660223583E0
1.120847150E1,-7.525986350E-1,3.034753163E0,1.883797467E0,3.650318392E0
1.121852550E1,-4.744612044E-1,3.188695441E0,1.850489388E0,3.717149852E0
1.122857950E1,-2.867041862E-1,3.407205305E0,1.838455233E0,3.882159827E0
1.123863350E1,-2.067464358E-1,3.727072560E0,1.843700770E0,4.163297549E0
1.124868750E1,-2.610916275E-1,4.143541372E0,1.851310921E0,4.545817425E0
1.125874150E1,-2.838805658E-1,4.541310203E0,1.809791597E0,4.896879839E0
1.126879550E1,-1.370049405E-1,4.916785648E0,1.853331134E0,5.256271279E0
1.127884950E1,3.401676178E-2,5.314189321E0,1.963574538E0,5.665455873E0
1.128890350E1,5.220218718E-2,5.668279159E0,2.163455758E0,6.067343283E0
1.129895750E1,4.797991276E-2,5.862665166E0,2.420353178E0,6.342811240E0
1.130901150E1,5.563859582E-2,5.953931431E0,2.704415592E0,6.539591641E0
1.131906550E1,-2.092835426E-2,6.002203120E0,2.963195815E0,6.693833709E0
1.132911950E1,-2.013523793E-1,6.036657254E0,3.200582246E0,6.835605334E0
1.133917350E1,-4.570587212E-1,6.104776731E0,3.382003806E0,6.993936756E0
1.134922750E1,-7.301757324E-1,6.181906768E0,3.456956924E0,7.120370711E0
1.135928150E1,-8.826991832E-1,6.233097972E0,3.530302058E0,7.217596608E0
1.136933550E1,-9.329963475E-1,6.264889868E0,3.618458190E0,7.294694436E0
1.137939050E1,-9.487072313E-1,6.290130544E0,3.672819754E0,7.345433453E0
1.138944450E1,-9.755307484E-1,6.309665506E0,3.673895642E0,7.366209896E0
1.139949850E1,-1.050569821E0,6.273241446E0,3.603005168E0,7.310191614E0
1.140955250E1,-1.131206433E0,6.249236287E0,3.506513246E0,7.254530813E0
1.141960650E1,-1.176482009E0,6.212515773E0,3.319548526E0,7.141348931E0
1.142966050E1,-1.164788162E0,6.118877876E0,3.060507517E0,6.940036325E0
1.143971450E1,-1.247012878E0,5.960087380E0,2.771207167E0,6.690087582E0
1.144976850E1,-1.538101891E0,5.647996337E0,2.477368208E0,6.356333322E0
1.145982250E1,-1.958258834E0,5.213127215E0,2.154904790E0,5.971188129E0
1.146987650E1,-2.349293720E0,4.848672017E0,1.882136858E0,5.707121907E0
1.147993050E1,-2.526081362E0,4.580094200E0,1.613200606E0,5.473642856E0
1.148998450E1,-2.652883496E0,4.406381024E0,1.229503391E0,5.288257100E0
1.150003850E1,-2.752963854E0,4.309866298E0,8.680057150E-1,5.187214224E0
1.151009250E1,-2.880827258E0,4.231567695E0,5.988332355E-1,5.154020963E0
1.152014650E1,-3.002440572E0,4.144112937E0,3.614789647E-1,5.130203550E0
1.153020050E1,-3.097466598E0,4.012029305E0,1.486566871E-1,5.070776793E0
1.154025450E1,-3.208067851E0,3.830480568E0,-1.291211396E-1,4.998094936E0
1.155030850E1,-3.468457813E0,3.557315025E0,-4.053488696E-1,4.984876878E0
1.156036250E1,-3.811147919E0,3.116913267E0,-5.705087382E-1,4.956357231E0
1.157041650E1,-4.128623078E0,2.669167991E0,-7.040230371E-1,4.966450918E0
1.158047050E1,-4.552714028E0,2.284320922E0,-8.315736146E-1,5.161089204E0
1.159052450E1,-5.003464188E0,1.905019644E0,-9.367970377E-1,5.435194791E0
1.160057454E1,-5.160423337E0,1.538294265E0,-1.020151436E0,5.480604639E0
1.161062854E1,-5.065618921E0,1.252448888E0,-1.139996699E0,5.341227925E0
1.162068254E1,-4.849802284E0,1.089538444E0,-1.254509739E0,5.126545709E0
1.163073654E1,-4.563455948E0,1.008935014E0,-1.330968370E0,4.859481130E0
1.164079054E1,-4.070866621E0,1.029047828E0,-1.457342780E0,4.444630744E0
1.165084454E1,-3.478073559E0,1.135502967E0,-1.603075275E0,3.994522876E0
1.166089854E1,-2.980367918E0,1.278312731E0,-1.802350430E0,3.710140623E0
1.167095254E1,-2.596867754E0,1.408235816E0,-1.958395075E0,3.544313970E0
1.168100754E1,-2.352562898E0,1.475013650E0,-2.058753760E0,3.456686926E0
1.169106154E1,-2.213745906E0,1.401800663E0,-2.171469952E0,3.403086509E0
1.170111554E1,-2.105933189E0,1.186601566E0,-2.356757691E0,3.375986476E0
1.171116954E1,-2.033280950E0,8.623021216E-1,-2.579713486E0,3.395985577E0
1.172122354E1,-2.053310003E0,3.896236967E-1,-2.808535499E0,3.500822795E0
1.173127754E1,-2.269324860E0,-1.772612661E-1,-2.944518054E0,3.721752739E0
1.174133154E1,-2.511013087E0,-8.094262621E-1,-3.016236493E0,4.007248455E0
1.175138554E1,-2.709823682E0,-1.481653895E0,-2.991315952E0,4.299582977E0
1.176143954E1,-2.914990785E0,-2.168893522E0,-2.901886882E0,4.649969662E0
1.177149354E1,-3.114249276E0,-2.866916732E0,-2.764559760E0,5.055744333E0
1.178154754E1,-3.382051168E0,-3.537893499E0,-2.600186926E0,5.542195645E0
1.179160154E1,-3.638694234E0,-4.202222566E0,-2.410509390E0,6.058822142E0
1.180165554E1,-3.767456354E0,-4.795112692E0,-2.208902949E0,6.485837290E0
1.181170954E1,-3.739923570E0,-5.243549109E0,-1.971821451E0,6.735719368E0
1.182176354E1,-3.571177604E0,-5.542296220E0,-1.766575996E0,6.825770844E0
1.183181754E1,-3.281284347E0,-5.677403154E0,-1.553407271E0,6.738902558E0
1.184187154E1,-2.902535630E0,-5.653850570E0,-1.312427726E0,6.489468845E0
1.185192554E1,-2.516417084E0,-5.499326786E0,-1.050300849E0,6.138247463E0
1.186197954E1,-2.196943347E0,-5.260149354E0,-8.183821499E-1,5.758947876E0
1.187203354E1,-1.824555232E0,-5.002387716E0,-7.382659400E-1,5.375678678E0
1.188208754E1,-1.443756482E0,-4.834847738E0,-7.022131777E-1,5.094437042E0
1.189214154E1,-1.204733416E0,-4.744963754E0,-6.964232647E-1,4.944802220E0
1.190219554E1,-9.182180947E-1,-4.619288963E0,-6.156939742E-1,4.749740421E0
1.191224954E1,-6.126098603E-1,-4.481606038E0,-5.332999814E-1,4.554612211E0
1.192230354E1,-3.227434999E-1,-4.392661702E0,-5.035353148E-1,4.433191628E0
1.193235754E1,-9.796892881E-2,-4.365145290E0,-5.258874661E-1,4.397800466E0
1.194241154E1,1.064889067E-1,-4.405746894E0,-6.037089363E-1,4.448191774E0
1.195246554E1,3.506926060E-1,-4.488609541E0,-7.596790284E-1,4.565929603E0
1.196251954E1,5.321761465E-1,-4.631578057E0,-9.819068447E-1,4.764332880E0
1.197257354E1,6.244639206E-1,-4.853756464E0,-1.189660171E0,5.036288149E0
1.198262854E1,6.646822393E-1,-5.123835554E0,-1.334161534E0,5.336242148E0
1.199268254E1,6.544887882E-1,-5.402610916E0,-1.454599851E0,5.633153736E0
1.200273654E1,6.147522801E-1,-5.641859100E0,-1.545965519E0,5.882049290E0
1.201279054E1,6.042027336E-1,-5.820340095E0,-1.646129785E0,6.078746831E0
1.202284454E1,6.429200721E-1,-5.933711175E0,-1.687781256E0,6.202489830E0
1.203289854E1,6.411547977E-1,-5.987614317E0,-1.654346293E0,6.244955271E0
1.204295254E1,6.350257462E-1,-6.044030592E0,-1.539714846E0,6.269312985E0
1.205300654E1,6.980721796E-1,-6.082494746E0,-1.427284291E0,6.286587910E0
1.206306054E1,8.264279187E-1,-6.041099968E0,-1.384296146E0,6.252531307E0
1.207311454E1,9.927391040E-1,-5.938252707E0,-1.406583393E0,6.182786830E0
1.208316854E1,1.143230647E0,-5.786371865E0,-1.403088512E0,6.062815604E0
1.209322254E1,1.235522515E0,-5.639538925E0,-1.321834142E0,5.922681881E0
1.210327654E1,1.246611174E0,-5.529704826E0,-1.154421049E0,5.784839050E0
1.211333054E1,1.203362828E0,-5.468124290E0,-9.659956938E-1,5.681691036E0
1.212338454E1,1.058067706E0,-5.472578114E0,-7.854766515E-1,5.628995652E0
1.213343854E1,7.397131258E-1,-5.545485291E0,-5.929564914E-1,5.625938146E0
1.214349254E1,3.547441417E-1,-5.668929369E0,-3.978009912E-1,5.693930912E0
1.215354654E1,5.614554942E-2,-5.727506191E0,-2.675449070E-1,5.734026488E0
1.216360054E1,-1.411032540E-1,-5.685507395E0,-1.361234728E-1,5.688886892E0
1.217365454E1,-3.210606712E-1,-5.553145144E0,2.646362096E-2,5.562481575E0
1.218370854E1,-5.936455858E-1,-5.401109936E0,2.094314772E-1,5.437670932E0
1.219376254E1,-9.534101468E-1,-5.254388677E0,5.085978341E-1,5.364351129E0
1.220381654E1,-1.352555121E0,-5.136695336E0,8.562469643E-1,5.380353445E0
1.221387054E1,-1.824200891E0,-5.043269109E0,1.184674835E0,5.492333444E0
1.222392454E1,-2.373132818E0,-5.003610953E0,1.440302532E0,5.722093439E0
1.223397854E1,-2.934764898E0,-5.042593170E0,1.674575612E0,6.069991299E0
1.224403254E1,-3.417222755E0,-5.125664563E0,1.888083476E0,6.443190808E0
1.225408754E1,-3.837824671E0,-5.232639958E0,2.092821101E0,6.818307657E0
1.226414154E1,-4.229375281E0,-5.268493915E0,2.231795530E0,7.115163715E0
1.227419554E1,-4.518358712E0,-5.234491771E0,2.477193961E0,7.345199758E0
1.228424954E1,-4.627434427E0,-5.069853474E0,2.702242474E0,7.376901654E0
1.229430354E1,-4.579364467E0,-4.703524829E0,2.888990555E0,7.172167815E0
1.230435754E1,-4.328417174E0,-4.121106775E0,2.992642393E0,6.683907897E0
1.231441154E1,-3.930739852E0,-3.365502671E0,2.973682796E0,5.968258823E0
1.232446554E1,-3.531140549E0,-2.590181463E0,2.891431768E0,5.247701522E0
1.233451954E1,-3.054916994E0,-1.764824608E0,2.784893452E0,4.494747521E0
1.234457354E1,-2.556369354E0,-8.759845331E-1,2.639578449E0,3.777531941E0
1.235462754E1,-2.165131570E0,-3.559317112E-2,2.506441149E0,3.312296609E0
1.236468154E1,-1.681936380E0,7.949542572E-1,2.339076734E0,2.988668972E0
1.237473554E1,-1.171161042E0,1.612029847E0,2.077034788E0,2.878251539E0
1.238478954E1,-8.293328154E-1,2.317746968E0,1.801309334E0,3.050321171E0
1.239484354E1,-6.347526813E-1,2.836621138E0,1.537660426E0,3.288423640E0
1.240489754E1,-5.665946120E-1,3.145019956E0,1.337756695E0,3.464357509E0
1.241495154E1,-7.022032374E-1,3.249119398E0,1.270595868E0,3.558690786E0
1.242500554E1,-9.153354174E-1,3.185710437E0,1.252614511E0,3.543392870E0
1.243505954E1,-1.111898342E0,3.028407472E0,1.250875695E0,3.460095338E0
1.244511354E1,-1.370727682E0,2.784240026E0,1.238350813E0,3.341317051E0
1.245516754E1,-1.677162128E0,2.460682009E0,1.298888791E0,3.248836845E0
1.246522154E1,-1.957546059E0,2.158468960E0,1.434132988E0,3.247724165E0
1.247527554E1,-2.113684843E0,1.968681789E0,1.600230166E0,3.302136912E0
1.248532954E1,-2.203210977E0,1.872313535E0,1.779206420E0,3.394889110E0
1.249538354E1,-2.207782331E0,1.877382779E0,2.010494205E0,3.527173920E0
1.250543854E1,-2.057721142E0,1.977082191E0,2.286253280E0,3.656504390E0
1.251549254E1,-1.772856490E0,2.204930351E0,2.475623399E0,3.759447992E0
1.252554654E1,-1.468665036E0,2.551719356E0,2.628483649E0,3.946792996E0
1.253560054E1,-1.265542120E0,2.954068311E0,2.724751623E0,4.213358263E0
1.254565454E1,-1.144340449E0,3.360943304E0,2.760261179E0,4.497165411E0
1.255570854E1,-1.077251835E0,3.735372390E0,2.713455387E0,4.740919589E0
1.256576254E1,-1.057373056E0,4.033012623E0,2.633457876E0,4.931361778E0
1.257581654E1,-1.055638188E0,4.307835267E0,2.520120125E0,5.101256916E0
1.258587054E1,-1.045802001E0,4.560194663E0,2.410256791E0,5.262928366E0
1.259592450E1,-1.063943573E0,4.828094788E0,2.302086225E0,5.453629635E0
1.260597850E1,-1.156705556E0,5.089340490E0,2.174830347E0,5.654134894E0
1.261603250E1,-1.476271679E0,5.346827309E0,2.140936376E0,5.945716854E0
1.262608650E1,-1.827917381E0,5.532615570E0,2.197846742E0,6.227491252E0
1.263614050E1,-1.986755825E0,5.699026158E0,2.367462773E0,6.483130250E0
1.264619450E1,-2.106482828E0,5.862979161E0,2.659390862E0,6.773784341E0
1.265624850E1,-2.085520560E0,5.985206434E0,3.003960848E0,7.013976963E0
1.266630250E1,-1.753693995E0,6.049634564E0,3.219271116E0,7.073699704E0
1.267635650E1,-1.397789766E0,6.112975112E0,3.329254904E0,7.099733739E0
1.268641050E1,-1.149957869E0,6.113112522E0,3.278167196E0,7.031282100E0
1.269646450E1,-8.301666284E-1,6.074930204E0,3.015404434E0,6.832760607E0
1.270651850E1,-7.463964933E-1,5.964500858E0,2.552247652E0,6.530417007E0
1.271657250E1,-8.636524630E-1,5.836417015E0,1.987421823E0,6.225713184E0
1.272662650E1,-9.002303052E-1,5.759588109E0,1.401123848E0,5.995533156E0
1.273668050E1,-8.669801134E-1,5.795516911E0,8.381374796E-1,5.919640632E0
1.274673450E1,-8.392005765E-1,5.968241322E0,3.562841521E-1,6.037474678E0
1.275678850E1,-8.259694970E-1,6.052072853E0,-4.300524786E-2,6.108327175E0
1.276684350E1,-7.807845533E-1,5.985138021E0,-3.494882257E-1,6.045960939E0
1.277689750E1,-7.549907309E-1,5.790799377E0,-6.041484276E-1,5.870976388E0
1.278695150E1,-8.310653454E-1,5.555019761E0,-7.627669430E-1,5.668397266E0
1.279700550E1,-1.003834196E0,5.375561696E0,-8.464606257E-1,5.533610235E0
1.280705950E1,-1.298183616E0,5.370558819E0,-9.174297439E-1,5.600880293E0
1.281711350E1,-1.617852650E0,5.539832203E0,-9.753547472E-1,5.853076535E0
1.282716750E1,-1.853907670E0,5.827240979E0,-1.004421987E0,6.196981088E0
1.283722150E1,-1.891526316E0,6.105012374E0,-9.671002328E-1,6.464080039E0
1.284727550E1,-1.795855928E0,6.248973162E0,-7.650953043E-1,6.546765226E0
1.285732950E1,-1.721866431E0,6.259990486E0,-4.400795764E-1,6.507378498E0
1.286738350E1,-1.601307369E0,6.178401947E0,-1.345011628E-1,6.383958527E0
1.287743750E1,-1.471353586E0,6.081246951E0,8.049496338E-2,6.257229841E0
1.288749150E1,-1.504488587E0,5.959394485E0,2.632147515E-1,6.152003783E0
1.289754550E1,-1.679780511E0,5.789859145E0,4.183636022E-1,6.043108437E0
1.290759950E1,-1.917535901E0,5.573901590E0,6.009218609E-1,5.925067928E0
1.291765350E1,-2.163798990E0,5.271413430E0,7.756201462E-1,5.750774924E0
1.292770750E1,-2.351343754E0,4.928325713E0,8.523685062E-1,5.526639472E0
1.293776150E1,-2.479486070E0,4.557830634E0,8.088329159E-1,5.251274316E0
1.294781550E1,-2.670301766E0,4.119889384E0,6.574672137E-1,4.953409250E0
1.295786950E1,-2.916904578E0,3.638278789E0,4.222392829E-1,4.682274114E0
1.296792350E1,-3.178883813E0,3.133791840E0,1.158929837E-1,4.465353824E0
1.297797750E1,-3.434114192E0,2.628721339E0,-2.489272262E-1,4.331891148E0
1.298803150E1,-3.581700253E0,2.150266778E0,-6.127671504E-1,4.222286999E0
1.299808550E1,-3.677790472E0,1.719167064E0,-8.780974245E-1,4.153640961E0
1.300814050E1,-3.649532633E0,1.366875244E0,-1.025384401E0,4.029745593E0
1.301819450E1,-3.475249938E0,1.170433941E0,-1.001999339E0,3.801483976E0
1.302824850E1,-3.208060834E0,1.100980275E0,-8.163090196E-1,3.488577403E0
1.303830250E1,-2.933433487E0,1.124801393E0,-5.491278094E-1,3.189318352E0
1.304835650E1,-2.612871584E0,1.151598890E0,-2.035401151E-1,2.862639777E0
1.305841050E1,-2.276787661E0,1.129379032E0,2.091189435E-1,2.550096035E0
1.306846450E1,-2.087215667E0,1.031522516E0,4.080441436E-1,2.363685251E0
1.307851850E1,-1.659759060E0,8.777589438E-1,3.736369340E-1,1.914383833E0
1.308857250E1,-1.318223194E0,8.948145410E-1,8.310264614E-1,1.796944749E0
1.309862650E1,-1.471985085E0,1.105772653E0,1.566002173E0,2.416989048E0
1.310868050E1,-1.655905745E0,8.417417765E-1,1.960821669E0,2.700995126E0
1.311873450E1,-1.856952315E0,5.101043327E-2,2.059847190E0,2.773778003E0
1.312878850E1,-2.217005728E0,-5.694545583E-1,2.059784625E0,3.079302777E0
1.313884250E1,-2.724156377E0,-1.068246977E0,2.123228669E0,3.615284159E0
1.314889650E1,-3.276787253E0,-1.598319149E0,2.205831992E0,4.261179834E0
1.315895050E1,-3.758418313E0,-2.200813034E0,2.229097478E0,4.892664080E0
1.316900450E1,-4.135059693E0,-2.759388190E0,2.172363991E0,5.425136603E0
1.317905850E1,-4.459958476E0,-3.199764512E0,2.074116150E0,5.867851425E0
1.318911250E1,-4.731835293E0,-3.516782711E0,1.991402461E0,6.222837748E0
1.319916650E1,-4.897683379E0,-3.702004669E0,1.966554864E0,6.446664183E0
1.320922050E1,-4.888706149E0,-3.814853885E0,1.971371069E0,6.506831938E0
1.321927450E1,-4.739094027E0,-3.874073315E0,1.943510402E0,6.422202810E0
1.322932850E1,-4.446975904E0,-3.799493249E0,1.916670513E0,6.155109219E0
1.323938350E1,-3.966707829E0,-3.586805457E0,1.969600825E0,5.699058852E0
1.324943750E1,-3.372983306E0,-3.354423659E0,2.110293458E0,5.204086178E0
1.325949150E1,-2.875210422E0,-3.228609997E0,2.303249236E0,4.898542082E0
1.326954550E1,-2.490555434E0,-3.181019216E0,2.471569524E0,4.736074908E0
1.327959950E1,-2.148668150E0,-3.205236922E0,2.584257649E0,4.644212112E0
1.328965350E1,-1.793424071E0,-3.290981954E0,2.644348900E0,4.586884915E0
1.329970750E1,-1.457544801E0,-3.473140263E0,2.608987863E0,4.581916390E0
1.330976150E1,-1.190283777E0,-3.749719118E0,2.496119644E0,4.659161106E0
1.331981550E1,-9.912977654E-1,-4.042744729E0,2.259592900E0,4.736266069E0
1.332986950E1,-8.970137519E-1,-4.376618696E0,1.899109570E0,4.854486795E0
1.333992350E1,-7.983870113E-1,-4.723883665E0,1.468681262E0,5.010940365E0
1.334997750E1,-6.069889319E-1,-5.040434963E0,1.046059279E0,5.183498837E0
1.336003150E1,-3.669847029E-1,-5.333302699E0,6.220879045E-1,5.381987441E0
1.337008550E1,-1.347490847E-1,-5.621226030E0,2.061792558E-1,5.626619703E0
1.338013950E1,1.066333330E-1,-5.866803825E0,-1.632250249E-1,5.870042606E0
1.339019350E1,3.370206463E-1,-6.088246068E0,-5.211887898E-1,6.119800720E0
1.340024750E1,5.836415845E-1,-6.309236906E0,-8.651528585E-1,6.394966560E0
1.341030150E1,7.966556507E-1,-6.475713567E0,-1.140757568E0,6.623507700E0
1.342035550E1,9.819971842E-1,-6.593035610E0,-1.356095902E0,6.802310866E0
1.343040950E1,1.147500284E0,-6.677324393E0,-1.500277715E0,6.939326421E0
1.344046350E1,1.328169308E0,-6.703868414E0,-1.610980418E0,7.021477289E0
1.345051850E1,1.526505108E0,-6.657906960E0,-1.698554167E0,7.038680927E0
1.346057250E1,1.723568555E0,-6.589685156E0,-1.776095263E0,7.039115953E0
1.347062650E1,1.860722600E0,-6.485963151E0,-1.818593996E0,6.988368244E0
1.348068050E1,1.873136823E0,-6.384856022E0,-1.850391154E0,6.906444484E0
1.349073450E1,1.790669448E0,-6.294303117E0,-1.876113348E0,6.807683166E0
1.350078850E1,1.657799073E0,-6.244323456E0,-1.903443819E0,6.735203899E0
1.351084250E1,1.483184842E0,-6.180865964E0,-1.914075519E0,6.638269837E0
1.352089650E1,1.377184762E0,-6.058919358E0,-1.808349089E0,6.471264798E0
1.353095050E1,1.242947309E0,-5.958813856E0,-1.652512606E0,6.307390784E0
1.354100450E1,9.955750036E-1,-5.870652462E0,-1.439870422E0,6.126088210E0
1.355105850E1,7.304569834E-1,-5.741674579E0,-1.216506785E0,5.914413169E0
1.356111250E1,4.591619647E-1,-5.590158019E0,-9.789563397E-1,5.693773081E0
1.357116650E1,1.388281024E-1,-5.421485728E0,-7.079533893E-1,5.469275888E0
1.358122050E1,-2.912942505E-1,-5.217789200E0,-4.940368053E-1,5.249214116E0
1.359127450E1,-6.669123673E-1,-4.976794453E0,-2.522482985E-1,5.027612190E0
1.360132817E1,-1.182847872E0,-4.760042846E0,-4.958877414E-2,4.905058209E0
1.361138217E1,-1.809354810E0,-4.547905278E0,2.374668297E-1,4.900367102E0
1.362143617E1,-2.274061105E0,-4.315361511E0,5.731084102E-1,4.911430762E0
1.363149017E1,-2.831206616E0,-4.102151271E0,7.677233353E-1,5.043091817E0
1.364154417E1,-3.479823046E0,-4.031539125E0,8.630724192E-1,5.395124665E0
1.365159917E1,-4.163661933E0,-4.146243370E0,9.637123561E-1,5.954507224E0
1.366165317E1,-4.861000287E0,-4.316540017E0,1.086113291E0,6.591015369E0
1.367170717E1,-5.409842752E0,-4.402185355E0,1.213645742E0,7.079447047E0
1.368176117E1,-5.709090970E0,-4.285912887E0,1.386969201E0,7.272307236E0
1.369181517E1,-5.767247377E0,-3.831557041E0,1.593280311E0,7.104964026E0
1.370186917E1,-5.402278209E0,-3.055740574E0,1.807978376E0,6.464591721E0
1.371192317E1,-4.797894797E0,-2.103721480E0,1.883508322E0,5.567139494E0
1.372197717E1,-4.165909018E0,-1.076620629E0,1.852617189E0,4.684666517E0
1.373203117E1,-3.610557432E0,-2.064406264E-1,1.834776750E0,4.055261819E0
1.374208517E1,-2.849352280E0,4.932556173E-1,1.773784443E0,3.392406340E0
1.375213917E1,-1.993117595E0,1.151748725E0,1.418956102E0,2.704159628E0
1.376219317E1,-1.232697140E0,1.602895619E0,9.091771299E-1,2.217074572E0
1.377224717E1,-6.587958473E-1,1.756193095E0,4.060900041E-1,1.919149615E0
1.378230117E1,-2.636421829E-1,1.717727333E0,-9.877876818E-2,1.740646902E0
1.379235517E1,-1.872863173E-2,1.550330904E0,-5.622372669E-1,1.649238436E0
1.380240917E1,1.110374558E-1,1.367632897E0,-8.979843897E-1,1.639855183E0
1.381246317E1,1.420078182E-1,1.125873626E0,-1.073968624E0,1.562423197E0
1.382251717E1,8.339123547E-2,8.507108206E-1,-1.155525003E0,1.437324261E0
1.383257117E1,1.111660945E-1,6.922038408E-1,-1.115050576E0,1.317133951E0
1.384262517E1,1.378709131E-1,5.517403454E-1,-1.000615596E0,1.150937604E0
1.385268017E1,7.174065828E-2,2.948985473E-1,-7.203243434E-1,7.816514792E-1
1.386273417E1,-8.131021142E-2,-2.110464782E-2,-2.708322117E-1,2.835610049E-1
1.387278817E1,-1.397636569E-1,-1.801595847E-1,9.353440046E-2,2.464549448E-1
1.388284217E1,-7.969521046E-2,3.730013417E-1,-1.567416322E-1,4.123703029E-1
1.389289617E1,-5.297723562E-1,-1.153288735E0,6.844516754E-1,1.441945822E0
1.390295017E1,-7.437886351E-1,-1.240983229E0,9.926870638E-1,1.754619194E0
1.391300417E1,-6.181834263E-1,-1.016551890E0,9.238086176E-1,1.506303706E0
1.392305817E1,-4.593543380E-1,-3.234262354E-1,1.142091025E0,1.272785468E0
1.393311217E1,-8.176822382E-1,4.968812930E-1,1.660848981E0,1.916745836E0
1.394316617E1,-3.473766500E0,2.141502095E0,1.030144912E1,1.108029507E1
1.395322017E1,-3.011109654E0,4.345789544E0,6.367511426E0,8.276343992E0
1.396327417E1,2.205500747E0,1.703408233E0,-1.607283223E0,3.217016088E0
1.397332817E1,2.422901979E0,2.783057134E0,-2.510455263E-1,3.698497650E0
1.398338217E1,1.696528691E-1,2.915560011E0,3.249556185E0,4.369083162E0
1.399343617E1,3.283310992E-1,2.398526399E0,1.819953473E0,3.028689624E0
1.400349017E1,1.219742634E0,2.732919014E0,5.267230332E-2,2.993224482E0
1.401354417E1,4.355298579E-2,4.328825895E0,2.201118259E0,4.856495864E0
1.402359817E1,9.489329338E-2,3.998170527E0,2.130908402E0,4.531571793E0
1.403365217E1,9.111692762E-1,3.983698084E0,1.050958076E0,4.219548880E0
1.404370617E1,2.657898653E-1,4.533867282E0,9.318894696E-1,4.636271645E0
1.405376017E1,-8.664053321E-2,4.424661759E0,2.737941188E-1,4.433971299E0
1.406381517E1,-2.229882467E-1,4.249431231E0,-3.711052358E-1,4.271429344E0
1.407386917E1,-7.814552289E-1,3.955351075E0,-2.963158393E-1,4.042681966E0
1.408392317E1,-9.705366415E-1,3.578990946E0,-1.391187090E-1,3.710858604E0
1.409397717E1,-9.309960151E-1,3.396323052E0,-1.693745416E-1,3.525684556E0
1.410403117E1,-9.673750520E-1,2.879352590E0,-1.772600967E-1,3.042680885E0
1.411408517E1,-1.248560636E0,2.417419776E0,-1.875202060E-1,2.727267105E0
1.412413917E1,-1.606438885E0,2.647797588E0,-1.636729217E-1,3.101333065E0
1.413419317E1,-1.658818243E0,3.083090048E0,-2.084912449E-1,3.507219812E0
1.414424717E1,-1.801756938E0,3.353569965E0,-1.110327780E-1,3.808554562E0
1.415430117E1,-1.847986779E0,3.746529170E0,-6.245294094E-2,4.177970360E0
1.416435517E1,-2.402989286E0,3.455785142E0,3.701322591E-1,4.225376474E0
1.417440917E1,-2.695192779E0,3.306559813E0,4.888178730E-1,4.293756494E0
1.418446317E1,-1.934497504E0,4.163427167E0,-1.128968704E-1,4.592292682E0
1.419451717E1,-1.742524059E0,4.046086121E0,4.175730586E-2,4.405558610E0
1.420457117E1,-1.889586210E0,4.125780162E0,-4.541824758E-1,4.560578879E0
1.421462517E1,-1.917987891E0,4.032020351E0,-6.533620298E-1,4.512510122E0
1.422467917E1,-1.844048679E0,3.647746893E0,-7.149624467E-1,4.149426976E0
1.423473317E1,-1.840903462E0,3.755442373E0,-1.261962454E0,4.368617883E0
1.424478717E1,-1.445649226E0,4.020940170E0,-1.997764962E0,4.716876761E0
1.425484217E1,-1.231628269E0,3.990864724E0,-2.225633880E0,4.732584453E0
1.426489617E1,-1.089497659E0,4.035654688E0,-2.366354726E0,4.803451738E0
1.427495017E1,-1.236326507E0,3.842679030E0,-2.575131315E0,4.788108880E0
1.428500417E1,-1.450432248E0,3.738235187E0,-2.867362874E0,4.929495498E0
1.429505817E1,-1.609794602E0,3.262560100E0,-2.631008477E0,4.489759757E0
1.430511217E1,-1.818200478E0,3.024336056E0,-2.209274540E0,4.163334667E0
1.431516617E1,-1.596776946E0,3.243747561E0,-2.279928786E0,4.274303466E0
1.432522017E1,-7.537505364E-1,3.503691380E0,-2.658317313E0,4.462134477E0
1.433527417E1,-3.334877586E-1,3.547358387E0,-2.648654205E0,4.439632271E0
1.434532817E1,-3.950940228E-1,3.279651219E0,-2.333375260E0,4.044360458E0
1.435538217E1,-4.693367046E-1,3.091933085E0,-2.272198182E0,3.865645059E0
1.436543617E1,-4.978354490E-1,2.965561014E0,-2.065072262E0,3.647864541E0
1.437549017E1,-4.164188182E-1,2.830354092E0,-2.036950078E0,3.511904688E0
1.438554417E1,-3.797392344E-1,2.761455181E0,-1.957467121E0,3.406099548E0
1.439559817E1,-5.726885802E-1,2.563766082E0,-1.647009206E0,3.100565764E0
1.440565217E1,-1.149617561E0,2.111726611E0,-8.718385649E-1,2.557559833E0
1.441570617E1,-1.561276161E0,1.490246817E0,-2.068557787E-1,2.168226957E0
1.442576017E1,-1.382506313E0,1.298346023E0,-1.341994464E-1,1.901324694E0
1.443581517E1,-1.224394678E0,1.211276450E0,-1.838458157E-1,1.732088985E0
1.444586917E1,-1.004878508E0,1.133062632E0,-4.503075260E-1,1.579996396E0
1.445592317E1,-8.113958967E-1,1.195237830E0,-8.274979591E-1,1.664845231E0
1.446597717E1,-9.187431747E-1,1.125359656E0,-8.841440302E-1,1.700656944E0
1.447603117E1,-1.076163084E0,9.660207637E-1,-7.611355698E-1,1.634212488E0
1.448608517E1,-1.499535411E0,8.137350022E-1,-5.159460300E-1,1.782406073E0
1.449613917E1,-2.296913193E0,5.525291348E-1,9.271754444E-2,2.364253625E0
1.450619317E1,-2.966460900E0,1.248524529E-1,8.919284284E-1,3.100163662E0
1.451624717E1,-3.137945117E0,-2.617192895E-1,1.438313309E0,3.461783026E0
1.452630117E1,-2.999905804E0,-5.033874168E-1,1.541266989E0,3.410034847E0
1.453635517E1,-2.686470487E0,-6.891452354E-1,1.385637497E0,3.100328387E0
1.454640917E1,-2.444499255E0,-9.114525738E-1,1.309659947E0,2.919166247E0
1.455646317E1,-2.419272612E0,-1.191413605E0,1.287477949E0,2.988301494E0
1.456651717E1,-2.461738016E0,-1.479569947E0,1.283036989E0,3.145705835E0
1.457657117E1,-2.780987220E0,-1.825451756E0,1.297841554E0,3.570792171E0
1.458662517E1,-3.199435607E0,-2.204402932E0,1.373823783E0,4.121064459E0
1.459667929E1,-3.564724032E0,-2.516281428E0,1.432589177E0,4.592520158E0
1.460673329E1,-3.902272097E0,-2.681482520E0,1.472172781E0,4.958363513E0
1.461678829E1,-4.166979643E0,-2.837593530E0,1.618100865E0,5.294705544E0
1.462684229E1,-4.198097355E0,-2.993510997E0,1.795690452E0,5.459819932E0
1.463689629E1,-4.045349371E0,-3.131538031E0,1.907069970E0,5.459697596E0
1.464695029E1,-3.827970359E0,-3.277305024E0,2.006985144E0,5.424211893E0
1.465700429E1,-3.564443366E0,-3.456904884E0,2.059108686E0,5.375441979E0
1.466705829E1,-3.225016006E0,-3.650866967E0,1.991328640E0,5.262598940E0
1.467711229E1,-2.763373652E0,-3.791470284E0,1.838376296E0,5.038959046E0
1.468716629E1,-2.324968134E0,-3.881121257E0,1.660083288E0,4.819175817E0
1.469722029E1,-1.927520607E0,-4.010057624E0,1.382803937E0,4.659189261E0
1.470727429E1,-1.480351281E0,-4.189080949E0,1.057344113E0,4.567035766E0
1.471732829E1,-1.066694103E0,-4.324474689E0,6.602912727E-1,4.502766062E0
1.472738229E1,-7.428729612E-1,-4.463879327E0,1.986495039E-1,4.529629180E0
1.473743629E1,-5.083376330E-1,-4.651457128E0,-3.212486592E-1,4.690166443E0
1.474749029E1,-3.212752640E-1,-4.905402873E0,-8.173483622E-1,4.983397785E0
1.475754429E1,-1.392496866E-1,-5.168749187E0,-1.277483304E0,5.326098218E0
1.476759829E1,3.187785029E-2,-5.410284802E0,-1.692709875E0,5.668991493E0
1.477765229E1,1.748557216E-1,-5.645025952E0,-2.047592595E0,6.007456030E0
1.478770629E1,3.157385355E-1,-5.858700753E0,-2.361248060E0,6.324520357E0
1.479776129E1,4.424026752E-1,-6.044197238E0,-2.571703092E0,6.583441135E0
1.480781529E1,4.820772028E-1,-6.221583050E0,-2.686297994E0,6.793871576E0
1.481786929E1,5.246811855E-1,-6.379783562E0,-2.700983276E0,6.947822631E0
1.482792329E1,6.353315556E-1,-6.511765160E0,-2.693258520E0,7.075335550E0
1.483797729E1,8.146387625E-1,-6.577735201E0,-2.643300202E0,7.135634004E0
1.484803129E1,9.870503479E-1,-6.597843776E0,-2.576957693E0,7.151679651E0
1.485808529E1,1.124007926E0,-6.558715378E0,-2.512608792E0,7.112899843E0
1.486813929E1,1.247743780E0,-6.463795187E0,-2.426130812E0,7.015954923E0
1.487819329E1,1.382129753E0,-6.351943215E0,-2.327279538E0,6.904614059E0
1.488824729E1,1.529897663E0,-6.245578269E0,-2.209878557E0,6.799367471E0
1.489830129E1,1.656049587E0,-6.169220064E0,-2.069525501E0,6.714515041E0
1.490835529E1,1.716648375E0,-6.099053476E0,-1.897541640E0,6.614075841E0
1.491840929E1,1.660261336E0,-6.063824587E0,-1.675766690E0,6.506506768E0
1.492846329E1,1.443859393E0,-6.100533991E0,-1.424214795E0,6.428812698E0
1.493851729E1,1.118360100E0,-6.181209780E0,-1.143477108E0,6.384796281E0
1.494857129E1,7.724943709E-1,-6.220741636E0,-8.694967550E-1,6.328538430E0
1.495862529E1,4.844365543E-1,-6.183206019E0,-6.732478255E-1,6.238587828E0
1.496868029E1,2.308001268E-1,-6.094619533E0,-5.060487404E-1,6.119946182E0
1.497873429E1,-2.418116033E-2,-5.982821939E0,-3.385643113E-1,5.992442647E0
1.498878829E1,-3.007456899E-1,-5.808979540E0,-1.866624194E-1,5.819753785E0
1.499884229E1,-5.762395942E-1,-5.576357421E0,-5.272141993E-3,5.606054044E0
1.500889629E1,-9.344359320E-1,-5.337938372E0,1.915620938E-1,5.422495054E0
1.501895029E1,-1.392705027E0,-5.095826222E0,4.365347019E-1,5.300720208E0
1.502900429E1,-1.967940654E0,-4.877513993E0,7.432416281E-1,5.311811489E0
1.503905829E1,-2.697648025E0,-4.741208965E0,1.112174623E0,5.567162626E0
1.504911229E1,-3.493030152E0,-4.683147283E0,1.566668463E0,6.048766666E0
1.505916629E1,-4.203226533E0,-4.608512837E0,2.009239392E0,6.553056294E0
1.506922029E1,-4.781439562E0,-4.420084559E0,2.365784622E0,6.927932496E0
1.507927429E1,-5.179505140E0,-4.111607388E0,2.709278721E0,7.146522231E0
1.508932829E1,-5.453929589E0,-3.727364336E0,3.023118666E0,7.264835808E0
1.509938229E1,-5.562814685E0,-3.294473619E0,3.335503823E0,7.274891710E0
1.510943629E1,-5.570349407E0,-2.866328502E0,3.578207712E0,7.214443985E0
1.511949029E1,-5.547885574E0,-2.391345141E0,3.732504915E0,7.101349087E0
1.512954429E1,-5.590196026E0,-1.869357768E0,3.775206839E0,6.999784050E0
1.513959929E1,-5.668619467E0,-1.334213867E0,3.745806454E0,6.924192321E0
1.514965329E1,-5.618314117E0,-7.350232203E-1,3.670585533E0,6.751215505E0
1.515970729E1,-5.372556812E0,-6.193882450E-2,3.557369989E0,6.443840808E0
1.516976129E1,-4.922623508E0,7.104147747E-1,3.433135952E0,6.043453799E0
1.517981529E1,-4.295398532E0,1.564398867E0,3.314224051E0,5.646403583E0
1.518986929E1,-3.565954286E0,2.425782318E0,3.161228730E0,5.347318665E0
1.519992329E1,-2.868624119E0,3.237382867E0,2.995975891E0,5.261703498E0
1.520997729E1,-2.211672483E0,3.946722338E0,2.833683497E0,5.338340056E0
1.522003129E1,-1.539503469E0,4.549533727E0,2.701479705E0,5.510564459E0
1.523008529E1,-7.956107533E-1,5.068165383E0,2.575876835E0,5.740595639E0
1.524013929E1,-1.219173700E-1,5.484166710E0,2.439604404E0,6.003550450E0
1.525019329E1,4.029310459E-1,5.737587376E0,2.313223416E0,6.199456823E0
1.526024729E1,7.193367487E-1,5.745890422E0,2.182731543E0,6.188458539E0
1.527030129E1,7.638966250E-1,5.515943989E0,2.041767599E0,5.931103697E0
1.528035529E1,5.021951330E-1,5.025937961E0,1.933663691E0,5.408447801E0
1.529040929E1,5.395810604E-2,4.396379069E0,1.842067058E0,4.766998159E0
1.530046429E1,-3.309810573E-1,3.818567744E0,1.780899043E0,4.226418043E0
1.531051829E1,-6.082045680E-1,3.277073182E0,1.725334122E0,3.753118606E0
1.532057229E1,-8.544115233E-1,2.805386189E0,1.682464237E0,3.380960903E0
1.533062629E1,-1.033360881E0,2.438191571E0,1.663683127E0,3.127371803E0
1.534068029E1,-1.074877281E0,2.188710467E0,1.623223172E0,2.929277751E0
1.535073429E1,-9.676504558E-1,2.041517631E0,1.572220248E0,2.752456748E0
1.536078829E1,-8.023362207E-1,1.983873732E0,1.529886407E0,2.630598946E0
1.537084229E1,-6.051903284E-1,2.016453541E0,1.495581962E0,2.582461156E0
1.538089629E1,-4.157335246E-1,2.140383522E0,1.490605397E0,2.641208139E0
1.539095029E1,-2.389675176E-1,2.352298312E0,1.463955542E0,2.780931256E0
1.540100429E1,-1.265050954E-1,2.633104119E0,1.522296867E0,3.044113762E0
1.541105829E1,-5.163208365E-2,3.017669646E0,1.582675801E0,3.407911186E0
1.542111229E1,8.480099916E-2,3.437327237E0,1.559381078E0,3.775457467E0
1.543116629E1,2.909556967E-1,3.861051566E0,1.500644189E0,4.152626566E0
1.544122029E1,4.332623076E-1,4.255493917E0,1.396912683E0,4.499812190E0
1.545127429E1,4.983722234E-1,4.545564052E0,1.333664960E0,4.763317085E0
1.546132929E1,5.695983267E-1,4.701254648E0,1.309598551E0,4.913378255E0
1.547138329E1,6.247328925E-1,4.830056237E0,1.281800888E0,5.036144155E0
1.548143729E1,6.558149368E-1,4.917876738E0,1.209595303E0,5.106733363E0
1.549149129E1,5.948565441E-1,4.920635455E0,1.140695222E0,5.086029215E0
1.550154529E1,4.543923908E-1,4.842544428E0,1.109366644E0,4.988727626E0
1.551159929E1,2.849558687E-1,4.746155417E0,1.076406913E0,4.875022352E0
1.552165329E1,6.692430675E-2,4.628325543E0,1.056416452E0,4.747830232E0
1.553170729E1,-2.159704185E-1,4.473847952E0,1.085587041E0,4.608737132E0
1.554176129E1,-4.713563329E-1,4.309481551E0,1.174694442E0,4.491515898E0
1.555181529E1,-6.354309583E-1,4.177020774E0,1.238590549E0,4.402883328E0
1.556186929E1,-6.175642061E-1,4.163253213E0,1.160247726E0,4.365803207E0
1.557192329E1,-5.791731423E-1,4.239047453E0,1.038549115E0,4.402675221E0
1.558197729E1,-5.261932755E-1,4.336638944E0,8.353343245E-1,4.447594870E0
1.559203129E1,-4.176753849E-1,4.416722994E0,6.770109473E-1,4.487787713E0
1.560208592E1,-3.721542263E-1,4.446385042E0,5.342103928E-1,4.493797888E0
1.561213992E1,-3.445354879E-1,4.425754896E0,3.838773090E-1,4.455712389E0
1.562219492E1,-3.507130712E-1,4.390939112E0,1.110058808E-1,4.406321397E0
1.563224892E1,-5.650029999E-1,4.268602497E0,-2.010576797E-1,4.310524314E0
1.564230292E1,-9.126345885E-1,4.047192414E0,-5.568521275E-1,4.186018707E0
1.565235692E1,-1.352420635E0,3.746212251E0,-9.971160373E-1,4.105774981E0
1.566241092E1,-1.967623150E0,3.262977299E0,-1.402187456E0,4.060134404E0
1.567246492E1,-2.803659214E0,2.526529258E0,-1.734795794E0,4.153717796E0
1.568251892E1,-3.538114523E0,1.644227686E0,-1.937523585E0,4.356114863E0
1.569257292E1,-3.998961071E0,8.938524547E-1,-2.097475777E0,4.603266937E0
1.570262692E1,-4.057830838E0,4.819491488E-1,-2.173361526E0,4.628365415E0
1.571268092E1,-3.617078832E0,4.622758994E-1,-2.215026592E0,4.266532677E0
1.572273492E1,-2.806024413E0,7.211990869E-1,-2.138241395E0,3.600830097E0
1.573278892E1,-1.959566272E0,1.045213479E0,-1.960691569E0,2.962546644E0
1.574284292E1,-1.265645031E0,1.240902245E0,-1.707653019E0,2.461254672E0
1.575289692E1,-7.968275589E-1,1.211140356E0,-1.475387287E0,2.068468701E0
1.576295092E1,-6.007657403E-1,9.248051293E-1,-1.271503064E0,1.683123300E0
1.577300592E1,-7.339851934E-1,4.662074210E-1,-1.080394422E0,1.386843801E0
1.578305992E1,-9.896283853E-1,2.622476220E-4,-9.468036702E-1,1.369599065E0
1.579311392E1,-1.114979825E0,-4.280731961E-1,-1.080670410E0,1.610675388E0
1.580316792E1,-9.889080083E-1,-8.133626077E-1,-1.432834468E0,1.921591110E0
1.581322192E1,-7.458848619E-1,-1.084999104E0,-1.967346577E0,2.367281106E0
1.582327592E1,-5.216166598E-1,-1.176248632E0,-2.646226733E0,2.942475269E0
1.583332992E1,-2.839811379E-1,-1.168202424E0,-3.229135661E0,3.445672548E0
1.584338392E1,-1.237960804E-1,-1.182987767E0,-3.607702237E0,3.798723596E0
1.585343792E1,-1.274014735E-1,-1.278051653E0,-3.777321192E0,3.989712089E0
1.586349192E1,-2.911404687E-1,-1.473416630E0,-3.713321078E0,4.005555238E0
1.587354592E1,-6.267443347E-1,-1.782112779E0,-3.488503822E0,3.967164395E0
1.588359992E1,-1.018087369E0,-2.157167078E0,-3.185192374E0,3.979362028E0
1.589365392E1,-1.418248588E0,-2.535181968E0,-2.672830102E0,3.947479883E0
1.590370792E1,-1.779252174E0,-2.859961176E0,-2.179019584E0,4.011638391E0
1.591376192E1,-1.898874512E0,-3.050936502E0,-1.767634634E0,4.004805882E0
1.592381692E1,-1.762315130E0,-3.090060514E0,-1.431719404E0,3.834585903E0
1.593387092E1,-1.375642267E0,-2.973194846E0,-1.202600352E0,3.489774612E0
1.594392492E1,-7.970409822E-1,-2.754325086E0,-1.080104984E0,3.064018241E0
1.595397892E1,-2.645163417E-1,-2.502744247E0,-9.817165178E-1,2.701382050E0
1.596403292E1,3.029676318E-2,-2.286486292E0,-8.751858035E-1,2.448445966E0
1.597408692E1,1.645283693E-1,-2.164627979E0,-7.984232640E-1,2.313042062E0
1.598414092E1,2.082480007E-1,-2.147901580E0,-7.899956721E-1,2.298029936E0
1.599419492E1,3.534068835E-1,-2.137961605E0,-8.867758620E-1,2.341398659E0
1.600424892E1,5.880351824E-1,-2.092563823E0,-1.134900412E0,2.452061923E0
1.601430292E1,7.354879278E-1,-2.089337622E0,-1.419861251E0,2.631022645E0
1.602435692E1,8.037576789E-1,-2.161983283E0,-1.663149276E0,2.843635637E0
1.603441092E1,6.694676006E-1,-2.333661189E0,-1.877565212E0,3.069106147E0
1.604446492E1,4.082566899E-1,-2.549187804E0,-1.947883535E0,3.234081361E0
1.605451892E1,2.698028094E-1,-2.701751016E0,-1.960201572E0,3.348827005E0
1.606457292E1,2.257791227E-1,-2.804413797E0,-1.912484784E0,3.401956938E0
1.607462792E1,2.131029439E-1,-2.896938676E0,-1.819730694E0,3.427694029E0
1.608468192E1,2.541808033E-1,-2.972120420E0,-1.650336272E0,3.409064019E0
1.609473592E1,3.805876654E-1,-3.062070770E0,-1.454006943E0,3.411049774E0
1.610478992E1,5.361376351E-1,-3.181003136E0,-1.290781041E0,3.474527337E0
1.611484392E1,5.297396117E-1,-3.329484115E0,-1.073628608E0,3.538186953E0
1.612489792E1,3.068840969E-1,-3.560357916E0,-8.397028524E-1,3.670889160E0
1.613495192E1,-1.755041778E-2,-3.821271204E0,-5.710642236E-1,3.863746366E0
1.614500592E1,-2.265199649E-1,-4.041668549E0,-2.925727442E-1,4.058570532E0
1.615505992E1,-2.293430007E-1,-4.177695835E0,-4.062616199E-2,4.184183455E0
1.616511392E1,-1.050732958E-1,-4.226465707E0,1.448831865E-1,4.230253409E0
1.617516792E1,2.317660868E-2,-4.229573502E0,2.934337467E-1,4.239803360E0
1.618522192E1,1.703393322E-1,-4.237418711E0,4.106555101E-1,4.260677267E0
1.619527592E1,3.664368188E-1,-4.234801497E0,5.197648466E-1,4.282286207E0
1.620532992E1,5.306769204E-1,-4.237844388E0,6.219402623E-1,4.315988038E0
1.621538492E1,6.325131977E-1,-4.241256531E0,7.218409650E-1,4.348492185E0
1.622543892E1,6.799890804E-1,-4.260678058E0,8.078656402E-1,4.389579656E0
1.623549292E1,6.265923071E-1,-4.283164988E0,8.761852388E-1,4.416539460E0
1.624554692E1,5.098497230E-1,-4.310689001E0,9.588264227E-1,4.445372258E0
1.625560092E1,2.859902412E-1,-4.334592419E0,1.074185848E0,4.474858332E0
1.626565492E1,-5.392828524E-2,-4.368347225E0,1.256331732E0,4.545738131E0
1.627570892E1,-4.054710764E-1,-4.381285067E0,1.500238393E0,4.648739707E0
1.628576292E1,-6.607774687E-1,-4.307612489E0,1.760583184E0,4.700192056E0
1.629581692E1,-9.660722923E-1,-4.131657490E0,2.065878593E0,4.719294826E0
1.630587092E1,-1.276533131E0,-3.863496287E0,2.441114448E0,4.745016348E0
1.631592492E1,-1.560043568E0,-3.530656984E0,2.897276060E0,4.826332277E0
1.632597892E1,-1.798821051E0,-3.116335270E0,3.331639983E0,4.903787074E0
1.633603292E1,-2.061951603E0,-2.677712528E0,3.793730818E0,5.080765918E0
1.634608692E1,-2.467551318E0,-2.278308522E0,4.323047091E0,5.474325107E0
1.635614092E1,-2.907238546E0,-1.921494758E0,4.918667867E0,6.028057038E0
1.636619592E1,-3.225058106E0,-1.530005252E0,5.524672712E0,6.577531789E0
1.637624992E1,-3.438743432E0,-1.084165437E0,5.982777500E0,6.985270052E0
1.638630392E1,-3.828647466E0,-6.838396181E-1,6.257286733E0,7.367483648E0
1.639635792E1,-4.440279672E0,-4.615436818E-1,6.548239506E0,7.925184337E0
1.640641192E1,-4.939179314E0,-4.004563580E-1,6.915494936E0,8.507639379E0
1.641646592E1,-5.070884923E0,-2.895169893E-1,7.210378207E0,8.819707925E0
1.642651992E1,-4.677198325E0,7.172867149E-2,7.364438306E0,8.724464496E0
1.643657392E1,-4.040942910E0,6.452323535E-1,7.467390232E0,8.515131312E0
1.644662792E1,-3.409983317E0,1.266979073E0,7.427677113E0,8.270647465E0
1.645668192E1,-2.601927935E0,1.925534892E0,7.257485715E0,7.946622711E0
1.646673592E1,-1.883300453E0,2.543434728E0,7.072185112E0,7.748011556E0
1.647678992E1,-1.373559489E0,3.108345635E0,6.808206714E0,7.609215263E0
1.648684392E1,-1.134200792E0,3.610413591E0,6.434773117E0,7.465105679E0
1.649689792E1,-1.196667767E0,3.981368845E0,5.995163072E0,7.295566591E0
1.650695292E1,-1.469092467E0,4.253312320E0,5.465042807E0,7.079236629E0
1.651700692E1,-1.767434952E0,4.390379534E0,4.839966098E0,6.769381847E0
1.652706092E1,-1.991485637E0,4.487315552E0,4.240582055E0,6.487260752E0
1.653711492E1,-2.022879338E0,4.603196841E0,3.631019179E0,6.202077253E0
1.654716892E1,-1.986697937E0,4.783105142E0,3.025361073E0,5.998155809E0
1.655722292E1,-1.867662660E0,5.036988029E0,2.454637742E0,5.906323617E0
1.656727692E1,-1.374580997E0,5.331981229E0,1.928308957E0,5.834198503E0
1.657733092E1,-7.563420224E-1,5.560229630E0,1.359824964E0,5.773848866E0
