"Time (s)","Linear Acceleration x (m/s^2)","Linear Acceleration y (m/s^2)","Linear Acceleration z (m/s^2)","Absolute acceleration (m/s^2)"
1.003841666E-2,-2.082778946E-1,1.418120827E-1,9.077919245E-2,2.678268283E-1
2.009141666E-2,-2.120826779E-1,9.830952913E-2,1.318646532E-1,2.683879888E-1
3.014441667E-2,-2.062498610E-1,5.316376179E-2,1.990246028E-1,2.915067465E-1
4.019741667E-2,-1.363003510E-1,4.754707262E-2,2.475950843E-1,2.866039699E-1
5.025141669E-2,-8.203533925E-2,2.645046473E-2,2.309913307E-1,2.465490192E-1
6.030441669E-2,-7.008706570E-2,2.574821413E-2,1.808204663E-1,1.956302848E-1
7.035741670E-2,-6.498537004E-2,4.129055187E-2,1.497629803E-1,1.683952442E-1
8.041141665E-2,-5.712729692E-4,5.789766759E-2,1.569667500E-1,1.673051908E-1
9.046441666E-2,4.378928639E-2,5.934105277E-2,1.376873106E-1,1.561942945E-1
1.005174167E-1,1.468287013E-2,4.801704258E-2,9.771983743E-2,1.098653252E-1
1.105704167E-1,-4.459751777E-2,4.578486800E-2,8.864203513E-2,1.092822178E-1
1.206244167E-1,-1.101157884E-1,4.148365617E-2,7.962738276E-2,1.420806133E-1
1.306774167E-1,-1.503870975E-1,3.826505631E-2,7.832579255E-2,1.738258422E-1
1.407304167E-1,-1.207672226E-1,3.145553514E-2,9.948862016E-2,1.595999947E-1
1.507834167E-1,-8.486495309E-2,3.967862070E-2,1.109468240E-1,1.452089906E-1
1.608374167E-1,-6.941046976E-2,5.910219401E-2,8.592366457E-2,1.252747332E-1
1.708904167E-1,-7.444031775E-2,6.691451266E-2,1.136570084E-1,1.514490953E-1
1.809434167E-1,-6.115376271E-2,6.789699107E-2,1.124589139E-1,1.449026964E-1
1.909975833E-1,-7.562569454E-2,6.520975694E-2,8.464253962E-2,1.309042306E-1
2.010505833E-1,-1.387126929E-1,5.746117294E-2,8.634875715E-2,1.732024984E-1
2.111035833E-1,-1.609505311E-1,7.980586901E-2,1.056784827E-1,2.084274260E-1
2.211565833E-1,-1.802866886E-1,1.072452441E-1,1.490402645E-1,2.573282590E-1
2.312105834E-1,-1.533214496E-1,1.396559219E-1,2.239670706E-1,3.052416946E-1
2.412635834E-1,-9.137063831E-2,1.049189293E-1,2.425132692E-1,2.795876625E-1
2.513165834E-1,-1.229312041E-1,9.243527010E-2,2.204160565E-1,2.687742511E-1
2.613695834E-1,-2.256068491E-1,1.175984703E-1,1.500430620E-1,2.953654872E-1
2.714235833E-1,-2.730184856E-1,9.678618327E-2,1.467200893E-1,3.247051637E-1
2.814765833E-1,-1.853962049E-1,4.658725217E-2,2.054132706E-1,2.806006710E-1
2.915295833E-1,-6.368027151E-2,-1.229187056E-2,2.330548131E-1,2.419107542E-1
3.015835834E-1,8.781640828E-3,-7.377622023E-2,2.349440485E-1,2.464117567E-1
3.116365834E-1,-9.637380838E-3,-6.593422696E-2,1.679571766E-1,1.806925968E-1
3.216895834E-1,-8.708550632E-2,-8.511499465E-3,6.293650568E-2,1.077837408E-1
3.317425834E-1,-1.827001268E-1,5.797733590E-2,-4.101178586E-2,1.960170258E-1
3.417965833E-1,-2.063342801E-1,1.208717416E-1,-1.253280509E-1,2.699832095E-1
3.518495833E-1,-2.463752089E-1,1.517258906E-1,-1.890358043E-1,3.456241091E-1
3.619025833E-1,-3.076920359E-1,1.376722540E-1,-2.064341944E-1,3.952759986E-1
3.719555833E-1,-3.983703639E-1,9.665169731E-2,-1.495548195E-1,4.363566677E-1
3.820095834E-1,-4.600926952E-1,6.484737575E-2,-5.708695114E-2,4.681339448E-1
3.920625834E-1,-4.764336164E-1,7.946497634E-2,3.728184700E-3,4.830295774E-1
4.021155834E-1,-4.950869653E-1,1.620045649E-1,1.076940179E-2,5.210302892E-1
4.121685834E-1,-5.082873470E-1,2.140845452E-1,2.178555608E-2,5.519627071E-1
4.222225833E-1,-4.916890021E-1,2.131106915E-1,7.099279940E-2,5.405684223E-1
4.322755833E-1,-4.911979821E-1,2.190915160E-1,1.147428364E-1,5.499476962E-1
4.423285833E-1,-4.672758535E-1,2.273650338E-1,1.535882288E-1,5.418772240E-1
4.523825833E-1,-4.308614409E-1,2.702442741E-1,1.286989707E-1,5.246303213E-1
4.624355834E-1,-4.463277648E-1,2.889332910E-1,1.307998753E-1,5.475395216E-1
4.724885834E-1,-5.312593762E-1,3.054766721E-1,1.866103792E-1,6.406059285E-1
4.825415834E-1,-6.453080750E-1,2.670739138E-1,2.489031065E-1,7.414200857E-1
4.925955834E-1,-6.827795179E-1,2.192778960E-1,3.595066988E-1,8.021943233E-1
5.026485833E-1,-7.141588200E-1,2.228166309E-1,4.082888496E-1,8.522733457E-1
5.127015833E-1,-7.257604998E-1,2.296178198E-1,4.128619570E-1,8.659720791E-1
5.227545833E-1,-7.201433721E-1,2.364539458E-1,4.292785996E-1,8.710895826E-1
5.328085833E-1,-5.991364867E-1,3.014093488E-1,4.245411855E-1,7.937552163E-1
5.428615834E-1,-4.508976562E-1,3.890171577E-1,3.455973423E-1,6.885350887E-1
5.529145834E-1,-3.785565620E-1,4.079349469E-1,2.627300173E-1,6.154210376E-1
5.629675834E-1,-3.768359457E-1,4.124114290E-1,1.850135046E-1,5.884883292E-1
5.730215833E-1,-3.591423442E-1,4.044668171E-1,1.213431734E-1,5.543471794E-1
5.830745833E-1,-3.298969104E-1,3.863451263E-1,7.305686653E-2,5.132561094E-1
5.931275833E-1,-3.550236386E-1,3.465640332E-1,7.788140416E-2,5.022090463E-1
6.031815833E-1,-3.835774930E-1,2.680395815E-1,1.149872500E-1,4.818702917E-1
6.132345833E-1,-2.837469569E-1,1.935856690E-1,2.190010303E-1,4.073686267E-1
6.232875834E-1,-1.294013675E-1,1.597944635E-1,4.039864683E-1,4.533034867E-1
6.333405834E-1,3.593121327E-2,1.564574575E-1,4.787524760E-1,5.049494246E-1
6.433945834E-1,1.648735012E-1,1.588197327E-1,4.684777486E-1,5.214195814E-1
6.534475833E-1,2.745994265E-1,2.174405546E-1,4.440954441E-1,5.656023367E-1
6.635005833E-1,3.245010267E-1,3.154993844E-1,3.736166149E-1,5.868817196E-1
6.735535833E-1,2.400565615E-1,4.343567602E-1,2.633369583E-1,5.618178544E-1
6.836075833E-1,1.056385023E-1,5.475956927E-1,1.145656657E-1,5.693380609E-1
6.936605833E-1,-2.098784968E-3,6.725580002E-1,1.814157128E-2,6.728059045E-1
7.037135834E-1,-9.615271054E-2,7.474924077E-1,-1.067982244E-1,7.611807302E-1
7.137665834E-1,-1.385214159E-1,8.148806910E-1,-3.163384598E-1,8.850360131E-1
7.238205834E-1,-1.013261077E-1,8.743090135E-1,-4.244534773E-1,9.771611871E-1
7.338735833E-1,-4.912691720E-2,8.622698888E-1,-4.602208954E-1,9.786348082E-1
7.439265833E-1,6.195446581E-2,8.575014845E-1,-5.359201187E-1,1.013093049E0
7.539805833E-1,1.985821147E-1,8.478573793E-1,-6.357239038E-1,1.078165977E0
7.640335833E-1,2.981278183E-1,8.264222176E-1,-6.540321207E-1,1.095267955E0
7.740865833E-1,3.466921603E-1,8.254229285E-1,-5.763407511E-1,1.064747447E0
7.841395834E-1,3.098231267E-1,8.866650572E-1,-5.163003713E-1,1.071788863E0
7.941935834E-1,2.359775439E-1,9.510094263E-1,-5.309289354E-1,1.114445990E0
8.042465834E-1,1.706405369E-1,1.008215368E0,-5.632190144E-1,1.167403992E0
8.142995833E-1,7.418932602E-2,1.014932942E0,-5.963733119E-1,1.179514332E0
8.243525833E-1,-3.260553628E-4,9.992539255E-1,-5.918475670E-1,1.161375071E0
8.344065833E-1,5.883395299E-3,9.540626961E-1,-5.136387187E-1,1.083556632E0
8.444595833E-1,3.134334169E-2,9.828697349E-1,-4.293201149E-1,1.073000970E0
8.545125833E-1,3.937639274E-2,1.059549682E0,-4.872174901E-1,1.166866279E0
8.645655834E-1,3.684893377E-2,1.123512521E0,-6.100329924E-1,1.278975559E0
8.746195834E-1,1.292241968E-2,1.181871680E0,-7.478390014E-1,1.398660369E0
8.846725834E-1,-3.309940673E-2,1.238472143E0,-8.674256712E-1,1.512394166E0
8.947255833E-1,-7.017879389E-2,1.283542919E0,-8.535420424E-1,1.543029976E0
9.047785833E-1,-1.226419131E-1,1.338243914E0,-8.508575857E-1,1.590564819E0
9.148325833E-1,-1.522632498E-1,1.363771103E0,-7.758459949E-1,1.576385970E0
9.248855833E-1,-1.945451970E-1,1.336885898E0,-5.262786448E-1,1.449855493E0
9.349385833E-1,-2.787463450E-1,1.307051504E0,-2.177117193E-1,1.354061133E0
9.449925834E-1,-3.366292483E-1,1.312925909E0,3.197432935E-2,1.355771386E0
9.550455834E-1,-3.658018843E-1,1.340644196E0,2.522061986E-1,1.412354717E0
9.650985834E-1,-3.402283558E-1,1.451359617E0,3.767483836E-1,1.537575824E0
9.751515833E-1,-3.524182655E-1,1.610122924E0,3.396045309E-1,1.682862353E0
9.852055833E-1,-4.128141560E-1,1.774556568E0,2.627779645E-1,1.840792981E0
9.952585833E-1,-4.848805773E-1,1.898337738E0,1.661650050E-1,1.966317917E0
1.005311583E0,-5.203674021E-1,1.939841859E0,1.445770848E-1,2.013621416E0
1.015364583E0,-5.548365922E-1,1.914479561E0,1.557148612E-1,1.999330576E0
1.025418583E0,-6.183089952E-1,1.848946892E0,1.416476297E-1,1.954731356E0
1.035471583E0,-6.336032648E-1,1.765816442E0,5.834994972E-2,1.876956452E0
1.045524583E0,-5.491438162E-1,1.598613995E0,2.186531210E-1,1.704386935E0
1.055577583E0,-2.433616271E-1,1.381330584E0,5.074242979E-1,1.491569135E0
1.065631583E0,1.689602664E-1,1.268310776E0,7.591685665E-1,1.487782481E0
1.075684583E0,4.307044432E-1,1.384567457E0,7.672424018E-1,1.640485984E0
1.085737583E0,3.428354830E-1,1.460757846E0,7.491002458E-1,1.677051231E0
1.095790583E0,6.741598450E-2,1.527353393E0,7.487628615E-1,1.702351058E0
1.105844583E0,-1.634367672E-1,1.637630126E0,6.595320117E-1,1.772999290E0
1.115897583E0,-2.957208120E-1,1.572408821E0,6.658510977E-1,1.732996822E0
1.125950583E0,-3.342292587E-1,1.329554513E0,7.075440842E-1,1.542738809E0
1.136003583E0,-2.923601248E-1,9.876011556E-1,8.696365035E-1,1.347997824E0
1.146057583E0,-2.225540909E-1,5.972235701E-1,1.093953238E0,1.266072669E0
1.156110583E0,-2.281566006E-1,2.396965923E-1,1.282121900E0,1.324139893E0
1.166163583E0,-2.242580426E-1,-8.872206889E-2,1.495334771E0,1.514658164E0
1.176217583E0,-1.085675188E-1,-3.080974672E-1,1.562364913E0,1.596150079E0
1.186270583E0,-6.537260190E-3,-4.790405975E-1,1.671825959E0,1.739116059E0
1.196322417E0,5.072284162E-2,-6.587905848E-1,1.655423934E0,1.782415845E0
1.206375417E0,9.012035742E-2,-7.350745296E-1,1.481175154E0,1.656000024E0
1.216429417E0,1.055388804E-1,-6.420850897E-1,1.137965814E0,1.310869144E0
1.226482417E0,2.564683802E-2,-5.597720808E-1,6.416126347E-1,8.518622633E-1
1.236535417E0,-1.437083347E-1,-4.766272324E-1,7.949874401E-2,5.041286090E-1
1.246588417E0,-1.737848040E-1,-4.103514549E-1,-4.714621675E-1,6.487418979E-1
1.256642417E0,-1.787685321E-1,-4.151917800E-1,-8.693160760E-1,9.798228627E-1
1.266695417E0,-1.831627878E-1,-4.542190209E-1,-1.140322827E0,1.241047814E0
1.276748417E0,-1.948686942E-1,-4.815889603E-1,-1.268998409E0,1.371225254E0
1.286801417E0,-1.671167124E-1,-5.215858157E-1,-1.320803570E0,1.429860773E0
1.296855417E0,-1.357621148E-1,-5.777190860E-1,-1.317603389E0,1.445084560E0
1.306908417E0,-1.448888145E-1,-5.968877207E-1,-1.146395161E0,1.300572791E0
1.316961417E0,-2.152002671E-1,-5.292931037E-1,-9.765937722E-1,1.131458236E0
1.327014417E0,-3.213550785E-1,-4.274840891E-1,-7.671096700E-1,9.351304609E-1
1.337068417E0,-3.133978951E-1,-3.074455027E-1,-4.222274423E-1,6.091116406E-1
1.347121417E0,-2.726175128E-1,-2.261547332E-1,-9.378407657E-2,3.664174186E-1
1.357174417E0,-2.846700130E-1,-8.654412724E-2,1.190656829E-1,3.204739289E-1
1.367228417E0,-4.798055595E-1,-7.762164161E-2,1.502740270E-1,5.087443143E-1
1.377281417E0,-7.615103032E-1,-1.552369975E-1,1.829798430E-1,7.984222506E-1
1.387334417E0,-9.645615180E-1,-1.395670442E-1,1.862928754E-1,9.922514385E-1
1.397387417E0,-1.131908611E0,-1.308338622E-1,1.494121474E-1,1.149199109E0
1.407441417E0,-1.142968107E0,-1.186171284E-1,9.995171964E-2,1.153445475E0
1.417494417E0,-9.918251111E-1,-1.126653206E-1,1.527661103E-1,1.009825732E0
1.427547417E0,-7.116955342E-1,-8.096149810E-2,2.545649654E-1,7.601767026E-1
1.437600417E0,-4.327517726E-1,-2.496366397E-2,3.122272825E-1,5.342126517E-1
1.447654417E0,-2.095289064E-1,1.595865950E-2,2.605694711E-1,3.347439181E-1
1.457707417E0,-5.540624209E-2,4.778052270E-2,2.017903358E-1,2.146442863E-1
1.467760417E0,7.176711693E-2,6.372682996E-2,1.461412150E-1,1.748395912E-1
1.477813417E0,1.936718423E-1,1.387779625E-1,1.962044907E-1,3.086491658E-1
1.487867417E0,2.256177396E-1,1.672680091E-1,2.738379729E-1,3.922616304E-1
1.497920417E0,9.678384438E-2,1.966719756E-1,4.102500057E-1,4.651365882E-1
1.507973417E0,-5.944337904E-2,2.287625914E-1,5.333941215E-1,5.834167699E-1
1.518027417E0,-1.348673446E-1,3.663373431E-1,6.284341800E-1,7.398119817E-1
1.528080417E0,-1.297957622E-1,5.364614978E-1,5.616759342E-1,7.874755447E-1
1.538133417E0,-8.955237351E-2,7.555269206E-1,4.812147385E-1,9.002267380E-1
1.548186417E0,9.084036894E-2,1.089656777E0,4.854405212E-1,1.196351271E0
1.558240417E0,5.616272561E-2,1.173237754E0,5.271007633E-1,1.287430112E0
1.568293417E0,-8.111221008E-2,1.224773432E0,4.189161640E-1,1.296973362E0
1.578346417E0,-1.092091046E-1,1.631040168E0,4.948194551E-1,1.707941730E0
1.588399417E0,1.890726417E-2,1.491194066E0,1.013161089E0,1.802917807E0
1.598453417E0,-3.536460346E-1,9.792997174E-1,7.613992792E-1,1.289892366E0
1.608506417E0,-7.154423569E-1,9.671549043E-1,7.866955036E-1,1.437406063E0
1.618559417E0,-1.189564130E0,1.470809502E0,1.237843859E0,2.260663803E0
1.628612417E0,-1.358079716E0,1.843860399E0,1.296974997E0,2.631795172E0
1.638666417E0,-1.302289385E0,1.570123583E0,1.047514066E0,2.293148802E0
1.648719417E0,-8.728648974E-1,1.501405204E0,1.111458632E0,2.061904704E0
1.658772417E0,-3.824735021E-1,1.739975550E0,1.180429464E0,2.137104259E0
1.668825417E0,-2.464736980E-1,1.617848265E0,9.276771355E-1,1.881161120E0
1.678879417E0,-4.621912609E-1,1.339568455E0,7.525980502E-1,1.604514952E0
1.688932417E0,-4.712098601E-1,1.079258161E0,7.898114848E-1,1.417970061E0
1.698985417E0,-3.509291989E-1,5.487051288E-1,1.024329856E0,1.213869958E0
1.709038417E0,-3.236862903E-1,4.635787686E-2,1.342316061E0,1.381569497E0
1.719092417E0,1.693113917E-1,1.543646294E-1,1.888206267E0,1.902056175E0
1.729145417E0,6.185159867E-1,-1.929006128E-1,1.763926038E0,1.879150802E0
1.739198417E0,7.024420962E-1,-3.331439424E-1,1.489080589E0,1.679812724E0
1.749252417E0,7.081086329E-1,9.480310008E-3,1.466724930E0,1.628738694E0
1.759305417E0,5.880351458E-1,2.645791993E-3,9.850225335E-1,1.147197335E0
1.769358417E0,1.567941475E-1,5.173415411E-2,3.147322297E-2,1.680815016E-1
1.779411417E0,4.303189655E-1,-2.368604369E-1,1.560639399E-1,5.153961893E-1
1.789465417E0,1.372976083E0,-5.487462786E-1,1.783966200E0,2.317050108E0
1.799518417E0,1.082155091E0,-7.484852649E-1,9.633270246E-1,1.630732593E0
1.809571417E0,5.969469237E-1,-1.141416695E0,3.408926725E-1,1.332435933E0
1.819624417E0,8.608788362E-1,-1.221954928E0,1.859268397E-1,1.506271890E0
1.829678417E0,1.053098303E0,-9.667271805E-1,-1.506535113E-1,1.437453985E0
1.839731417E0,1.313055279E0,-5.955234922E-1,-4.128204417E-1,1.499727679E0
1.849784417E0,1.485525044E0,-4.844371756E-1,-9.381810737E-1,1.822538823E0
1.859837417E0,1.520306183E0,-5.207882920E-1,-1.418677189E0,2.143640899E0
1.869891417E0,1.556158093E0,-3.902983557E-1,-1.457839501E0,2.167776932E0
1.879944417E0,1.553013168E0,-2.420815254E-1,-1.477443461E0,2.157149171E0
1.889997417E0,1.415610617E0,-2.881447940E-1,-1.503179981E0,2.084833541E0
1.900050417E0,1.247999011E0,-3.056966735E-1,-1.058961745E0,1.665038127E0
1.910104417E0,1.104481588E0,-5.580281487E-1,-6.186628979E-1,1.383480674E0
1.920157417E0,1.037814266E0,-9.415766980E-1,-1.016538441E-2,1.401330962E0
1.930210417E0,1.112601616E0,-1.056245129E0,7.186233884E-1,1.694094361E0
1.940264417E0,1.112742680E0,-1.543811113E0,1.306760897E0,2.308500177E0
1.950317417E0,8.914917145E-1,-1.632769044E0,1.008533603E0,2.116088905E0
1.960370417E0,8.775235203E-1,-7.200698434E-1,1.407037722E0,1.807844921E0
1.970423417E0,7.801564161E-1,-2.514191999E-1,1.597365176E0,1.795391643E0
1.980477417E0,6.827247003E-1,-2.284304330E-1,1.303476516E0,1.489075051E0
1.990530417E0,8.039223511E-1,-5.120421730E-1,1.139144613E0,1.485304273E0
2.000583417E0,1.047278204E0,-8.605715650E-1,9.746659452E-1,1.669535492E0
2.010636417E0,1.155068628E0,-1.082986346E0,7.201553589E-1,1.739444366E0
2.020690417E0,1.243840033E0,-1.104161891E0,4.912450522E-1,1.734252926E0
2.030743417E0,1.364605940E0,-9.916445053E-1,2.289336956E-1,1.702327475E0
2.040796417E0,1.437118723E0,-8.968021557E-1,-7.287969589E-2,1.695545865E0
2.050849417E0,1.687670452E0,-8.588256595E-1,-2.584486860E-1,1.911179947E0
2.060903417E0,2.127183725E0,-1.035930366E0,-3.629869616E-1,2.393704631E0
2.070956417E0,2.609411786E0,-1.481974322E0,-4.603027564E-1,3.035977007E0
2.081009417E0,3.344637174E0,-2.103597081E0,-3.465820134E-2,3.951318728E0
2.091062417E0,3.525832154E0,-2.398200417E0,3.914950615E-1,4.282070294E0
2.101116417E0,3.431576792E0,-2.004279638E0,-2.120709103E-1,3.979677150E0
2.111169417E0,3.223968185E0,-1.275084045E0,-6.036530954E-1,3.519120236E0
2.121222417E0,2.959840098E0,-6.320011277E-1,-9.593684596E-1,3.174975066E0
2.131275417E0,2.666763909E0,-2.883684865E-1,-1.598466792E0,3.122480138E0
2.141329417E0,2.433571978E0,-2.560580884E-1,-2.010651641E0,3.167105672E0
2.151382417E0,2.410570786E0,-4.438520903E-1,-1.966856580E0,3.142670998E0
2.161435417E0,2.167824505E0,-5.394184713E-1,-2.044706410E0,3.028408769E0
2.171488417E0,1.707427316E0,-5.716838092E-1,-2.136320584E0,2.793921269E0
2.181542417E0,1.535202403E0,-6.301675871E-1,-2.055810857E0,2.642028744E0
2.191595833E0,1.648216364E0,-6.406899440E-1,-1.933107036E0,2.619924350E0
2.201648833E0,1.831195038E0,-6.470473292E-1,-1.763716707E0,2.623479014E0
2.211702833E0,1.805944422E0,-7.928985954E-1,-1.403258666E0,2.420590490E0
2.221755833E0,1.440294053E0,-8.826612494E-1,-9.692607790E-1,1.947563683E0
2.231808833E0,1.101176157E0,-1.059198703E0,-7.282595998E-1,1.692587624E0
2.241861833E0,1.172837732E0,-1.449393198E0,-4.154861873E-1,1.910214061E0
2.251915833E0,1.373929617E0,-1.949394309E0,-2.241641217E-1,2.395426960E0
2.261968833E0,1.385172351E0,-2.258056983E0,1.838294435E-1,2.655431612E0
2.272021833E0,1.413167066E0,-2.143171328E0,4.920186388E-1,2.613868176E0
2.282074833E0,1.460197391E0,-1.850414836E0,2.333845961E-1,2.368687369E0
2.292128833E0,1.265833603E0,-1.559690981E0,-1.631536889E-1,2.015338630E0
2.302181833E0,7.440686437E-1,-1.526161292E0,-5.552521831E-1,1.786368222E0
2.312234833E0,-2.556869730E-1,-1.749587349E0,-1.130126452E0,2.098479811E0
2.322287833E0,-1.008740010E0,-1.698043266E0,-9.690268904E-1,2.199981921E0
2.332341833E0,-1.240400262E0,-1.512441385E0,-8.139844590E-1,2.118641653E0
2.342394833E0,-1.329957825E0,-1.391915507E0,-7.914317483E-1,2.081485240E0
2.352447833E0,-1.396666077E0,-1.647211228E0,-3.881241417E-1,2.194224535E0
2.362500833E0,-1.263748048E0,-1.789339499E0,4.544689894E-2,2.191086578E0
2.372554833E0,-9.757836404E-1,-1.668770497E0,4.404789412E-1,1.982667491E0
2.382607833E0,-7.410041910E-1,-1.606679791E0,7.046117055E-1,1.904464443E0
2.392660833E0,-5.677294104E-1,-1.471749588E0,8.038658524E-1,1.770469950E0
2.402713833E0,-5.463977444E-1,-1.171470945E0,7.402154016E-1,1.489568230E0
2.412767833E0,-8.107508026E-1,-8.996695572E-1,7.409895730E-1,1.419784393E0
2.422820833E0,-1.061949672E0,-5.192345041E-1,7.841589814E-1,1.418536882E0
2.432873833E0,-1.174535471E0,-1.555100624E-1,1.011422712E0,1.557784598E0
2.442926833E0,-1.291911454E0,-9.729416013E-2,1.331608055E0,1.857870117E0
2.452980833E0,-1.421247041E0,-1.981358260E-1,1.783828205E0,2.289376339E0
2.463033833E0,-1.492692707E0,-2.878873703E-1,2.281411055E0,2.741504524E0
2.473086833E0,-1.569988805E0,-2.142720947E-1,2.733950463E0,3.159946599E0
2.483139833E0,-1.589907637E0,3.655094504E-3,3.083298794E0,3.469085053E0
2.493193833E0,-1.566236354E0,2.356071228E-1,3.319651437E0,3.678137123E0
2.503246833E0,-1.713808383E0,4.413636249E-1,3.351987709E0,3.790483165E0
2.513299833E0,-1.926343270E0,7.258601949E-1,3.408109869E0,3.981568070E0
2.523352833E0,-2.120306230E0,9.604683208E-1,3.350644603E0,4.079830531E0
2.533406833E0,-2.160305863E0,1.249799369E0,2.977088215E0,3.884839009E0
2.543459833E0,-2.095348560E0,1.846491061E0,2.863872671E0,4.000222682E0
2.553512833E0,-2.205009581E0,2.219780232E0,2.922060068E0,4.281112773E0
2.563565833E0,-2.266035801E0,2.420814231E0,2.815131451E0,4.349738484E0
2.573619833E0,-2.229476962E0,2.555682306E0,2.777248510E0,4.383513301E0
2.583672833E0,-2.171157418E0,2.612227513E0,2.831848056E0,4.422332023E0
2.593725833E0,-2.133622387E0,2.571700461E0,2.791153189E0,4.353909034E0
2.603778833E0,-2.114033630E0,2.603355825E0,2.740816848E0,4.331128806E0
2.613832833E0,-2.033515131E0,2.695487478E0,2.727780481E0,4.340693826E0
2.623885833E0,-1.876031780E0,2.752625885E0,2.782514513E0,4.340372278E0
2.633938833E0,-1.719867560E0,2.865664550E0,2.760454722E0,4.334753512E0
2.643991833E0,-1.619479930E0,3.048684739E0,2.620648381E0,4.334165643E0
2.654045833E0,-1.519157497E0,3.221755598E0,2.343248869E0,4.263609257E0
2.664098833E0,-1.395429829E0,3.356727462E0,2.003761282E0,4.150891824E0
2.674151833E0,-1.273554559E0,3.578117957E0,1.617124087E0,4.127948600E0
2.684204833E0,-1.260653847E0,3.750343601E0,1.268384451E0,4.154891619E0
2.694258833E0,-1.214966628E0,3.778435671E0,1.116359768E0,4.122981829E0
2.704311833E0,-1.085919748E0,3.789493926E0,1.106152868E0,4.094271618E0
2.714364833E0,-1.072906185E0,3.870331390E0,9.724650532E-1,4.132345705E0
2.724417833E0,-1.115489702E0,3.905173486E0,7.777410775E-1,4.135163650E0
2.734471833E0,-1.060562713E0,4.082390606E0,6.759457308E-1,4.271722013E0
2.744524833E0,-9.446314296E-1,4.208598078E0,7.507398051E-1,4.378154471E0
2.754577833E0,-7.404294097E-1,3.908523356E0,8.705773205E-1,4.072185581E0
2.764630833E0,-5.945750007E-1,3.334502780E0,9.336582524E-1,3.513423680E0
2.774684833E0,-5.996383971E-1,2.829293115E0,1.245227138E0,3.148818249E0
2.784737833E0,-6.055247891E-1,2.534061349E0,1.653566274E0,3.085840018E0
2.794790833E0,-5.915230465E-1,2.381584091E0,1.925661192E0,3.119296928E0
2.804843833E0,-6.072503024E-1,2.214066333E0,2.129047233E0,3.131083643E0
2.814897833E0,-6.579053164E-1,2.042467511E0,2.188646733E0,3.065075441E0
2.824950833E0,-6.851489559E-1,1.908017511E0,2.184249626E0,2.980084956E0
2.835003833E0,-7.098423323E-1,1.835723121E0,2.114538537E0,2.888776339E0
2.845056833E0,-7.742128676E-1,1.755301394E0,2.041543066E0,2.801497214E0
2.855110833E0,-8.011840269E-1,1.649762953E0,1.964819995E0,2.687774406E0
2.865163833E0,-7.740202019E-1,1.539516917E0,1.850360164E0,2.528448605E0
2.875216833E0,-6.731703499E-1,1.423041259E0,1.704888455E0,2.320527826E0
2.885269833E0,-5.818052664E-1,1.308651594E0,1.679479380E0,2.207196718E0
2.895323833E0,-5.077602205E-1,1.319624479E0,1.613562548E0,2.145416814E0
2.905376833E0,-4.456578201E-1,1.443437224E0,1.478725170E0,2.113941826E0
2.915429833E0,-4.754578623E-1,1.503919653E0,1.229830835E0,2.000079595E0
2.925482833E0,-5.922612575E-1,1.447643126E0,9.305551350E-1,1.819993648E0
2.935536833E0,-7.448724166E-1,1.329672042E0,7.124136454E-1,1.682378037E0
2.945589833E0,-8.256440994E-1,1.133783009E0,5.850402385E-1,1.519678970E0
2.955642833E0,-8.003525528E-1,1.004213680E0,5.071635121E-1,1.380660766E0
2.965695833E0,-7.285148308E-1,9.806365371E-1,5.144199067E-1,1.325522432E0
2.975749833E0,-6.909096327E-1,8.499752408E-1,5.642709285E-1,1.232158964E0
2.985802833E0,-5.648310918E-1,6.428592610E-1,6.796236295E-1,1.092790222E0
2.995855833E0,-3.771170506E-1,4.489141345E-1,7.296541607E-1,9.360215619E-1
3.005908833E0,-1.674025682E-1,2.901821101E-1,7.445639759E-1,8.164586891E-1
3.015962833E0,-1.068549424E-2,7.701104611E-2,6.529012692E-1,6.575142191E-1
3.026015833E0,6.600541681E-2,-1.652621949E-1,5.609795308E-1,5.885289645E-1
3.036068833E0,5.910073221E-3,-3.798573482E-1,5.318732607E-1,6.536173953E-1
3.046121833E0,-9.744004816E-2,-5.997272748E-1,4.425932944E-1,7.517021959E-1
3.056175833E0,-2.007729203E-2,-7.799159494E-1,2.338628983E-1,8.144715103E-1
3.066228833E0,8.513604462E-2,-9.797389895E-1,-6.571451783E-2,9.856241837E-1
3.076281833E0,1.537358710E-1,-1.298937322E0,-1.272155321E-1,1.314175284E0
3.086334833E0,5.081996387E-1,-1.546464141E0,-1.227973759E-2,1.627872539E0
3.096388833E0,9.911793593E-1,-1.740085331E0,4.330857217E-2,2.003049953E0
3.106441833E0,1.391989620E0,-1.958248017E0,2.091572428E-1,2.411662736E0
3.116494833E0,1.709434958E0,-2.120584850E0,2.737297994E-1,2.737512737E0
3.126547833E0,1.762437921E0,-2.196978430E0,1.040780997E-1,2.818463038E0
3.136601833E0,1.606525132E0,-2.262961481E0,-6.719035506E-3,2.775241036E0
3.146654833E0,1.509539412E0,-2.398434305E0,-3.856764972E-2,2.834198973E0
3.156707833E0,1.363250847E0,-2.610001770E0,-9.019096255E-2,2.945962750E0
3.166760833E0,1.254869782E0,-3.023124513E0,2.039257389E-1,3.279567913E0
3.176814833E0,1.276430512E0,-3.528542631E0,7.312989825E-1,3.822915923E0
3.186867833E0,1.505590495E0,-3.855029226E0,1.171818269E0,4.301303422E0
3.196920958E0,1.759991154E0,-3.952520730E0,1.348764371E0,4.532014377E0
3.206973958E0,1.950017184E0,-4.027159268E0,1.552925752E0,4.736259831E0
3.217027958E0,2.123391806E0,-4.317809156E0,1.539865412E0,5.052074242E0
3.227080958E0,2.304996384E0,-4.722095001E0,1.386433888E0,5.434463033E0
3.237133958E0,2.337639927E0,-4.747269604E0,9.147068417E-1,5.370085448E0
3.247186958E0,2.184708340E0,-4.208379976E0,5.617724133E-1,4.774829924E0
3.257240958E0,1.969186111E0,-3.496235595E0,-4.683093488E-2,4.012922927E0
3.267293958E0,1.742866413E0,-2.899236339E0,-1.147899064E0,3.572229968E0
3.277346958E0,1.744539302E0,-2.481049030E0,-2.117322396E0,3.698929007E0
3.287399958E0,1.712787459E0,-2.081616666E0,-3.011373364E0,4.041675192E0
3.297453958E0,1.666549139E0,-1.776368035E0,-3.471622910E0,4.240876686E0
3.307506958E0,1.800301566E0,-1.519237750E0,-3.800113639E0,4.471021442E0
3.317559958E0,1.299664131E0,-1.424898627E0,-3.709939633E0,4.181281506E0
3.327612958E0,7.794496340E-1,-1.411565952E0,-3.563042958E0,3.910925119E0
3.337666958E0,6.074081773E-1,-1.585544445E0,-3.352550211E0,3.757989994E0
3.347719958E0,1.720896962E-1,-1.895697720E0,-2.974955735E0,3.531804969E0
3.357772958E0,-2.082743132E-1,-2.227511275E0,-2.455843438E0,3.322100489E0
3.367825958E0,-5.515424171E-1,-2.466730369E0,-1.968666878E0,3.203842541E0
3.377879958E0,-7.724663043E-1,-2.788327814E0,-1.282753984E0,3.164954024E0
3.387932958E0,-8.424761868E-1,-3.136158208E0,-7.197442997E-1,3.326151874E0
3.397985958E0,-7.950652081E-1,-3.455215039E0,-1.648201454E-1,3.549338717E0
3.408038958E0,-6.516017255E-1,-3.712424407E0,2.549719316E-1,3.777789099E0
3.418092958E0,-5.594765040E-1,-3.822540634E0,4.365624762E-1,3.887855148E0
3.428145958E0,-3.711189768E-1,-3.891891536E0,5.715817022E-1,3.951108030E0
3.438198958E0,-1.185809487E-1,-3.861236338E0,5.753186578E-1,3.905662435E0
3.448251958E0,1.412067497E-1,-3.642665955E0,5.423994184E-1,3.685532761E0
3.458305958E0,4.435610086E-1,-3.359251705E0,4.911169982E-1,3.423815750E0
3.468358958E0,5.431265196E-1,-2.991126210E0,2.542123783E-1,3.050646875E0
3.478411958E0,3.649253136E-1,-2.544462669E0,-1.222348738E-1,2.573402829E0
3.488464958E0,-3.613871634E-2,-2.068638332E0,-5.850612885E-1,2.150085409E0
3.498518958E0,-4.653407174E-1,-1.615691666E0,-8.595108801E-1,1.888322137E0
3.508571958E0,-7.593548003E-1,-1.198548231E0,-9.701004392E-1,1.718788072E0
3.518624958E0,-1.065937766E0,-8.843747029E-1,-1.005339269E0,1.711446459E0
3.528677958E0,-1.307052381E0,-6.032087070E-1,-9.437651646E-1,1.721319074E0
3.538730958E0,-1.470450483E0,-3.002939925E-1,-8.577181238E-1,1.728606805E0
3.548784958E0,-1.519437871E0,-8.461330354E-2,-7.122680497E-1,1.680231124E0
3.558837958E0,-1.393453763E0,7.387606144E-2,-4.437282389E-1,1.464262890E0
3.568890958E0,-1.209862301E0,2.494501135E-1,-9.419279695E-2,1.238896456E0
3.578944958E0,-9.612983331E-1,4.269248030E-1,1.542600739E-1,1.063087693E0
3.588997958E0,-7.741713524E-1,5.846516910E-1,3.542167228E-1,1.032777018E0
3.599050958E0,-7.403463793E-1,7.499378595E-1,6.266314834E-1,1.226045093E0
3.609103958E0,-7.678250769E-1,9.005875701E-1,9.138227427E-1,1.495220828E0
3.619156958E0,-8.312939715E-1,8.915761337E-1,1.083722949E0,1.631077282E0
3.629210958E0,-9.579969952E-1,8.542279208E-1,1.211755337E0,1.765167012E0
3.639263958E0,-1.032902751E0,9.609615335E-1,1.343023574E0,1.947831482E0
3.649316958E0,-1.135771062E0,1.108264005E0,1.410118035E0,2.122889042E0
3.659369958E0,-1.196307286E0,1.392683100E0,1.527030773E0,2.387999230E0
3.669423958E0,-1.158934807E0,1.762732036E0,1.552269110E0,2.619139841E0
3.679476958E0,-1.001754049E0,1.917989645E0,1.441461450E0,2.600001262E0
3.689529958E0,-6.693839854E-1,1.883341969E0,1.356789674E0,2.415766982E0
3.699582958E0,-2.749451432E-1,1.823996238E0,1.641258470E0,2.469065911E0
3.709636958E0,1.170758754E-2,1.890076792E0,2.089984909E0,2.817900684E0
3.719689958E0,2.267211092E-1,2.081909904E0,2.345035193E0,3.144032660E0
3.729742958E0,3.215983227E-1,2.341394717E0,2.208994458E0,3.234997870E0
3.739795958E0,2.887232298E-1,2.640024884E0,1.950479114E0,3.295066200E0
3.749849958E0,2.300028589E-1,2.841597703E0,1.778460461E0,3.360133991E0
3.759902958E0,2.193235043E-1,2.499781170E0,1.962165944E0,3.185451913E0
3.769955958E0,4.104189903E-1,1.631854978E0,2.578779978E0,3.079204538E0
3.780008958E0,8.813031605E-1,1.023281450E0,3.364886082E0,3.625776955E0
3.790062958E0,1.465302887E0,7.030031365E-1,4.252732569E0,4.552698130E0
3.800115958E0,1.943466256E0,5.339472681E-1,5.152653556E0,5.532811170E0
3.810168958E0,2.237612486E0,6.295948523E-1,5.861684588E0,6.305762882E0
3.820221958E0,2.387428091E0,1.033222886E0,6.036453770E0,6.573137496E0
3.830275958E0,2.375221736E0,1.618136240E0,5.589634109E0,6.285224949E0
3.840328958E0,2.121974148E0,2.386585507E0,4.728401223E0,5.705816576E0
3.850381958E0,1.574536477E0,3.262952156E0,3.654736655E0,5.146175464E0
3.860434958E0,8.492051625E-1,3.918634361E0,2.697630483E0,4.832603324E0
3.870487958E0,1.257496351E-1,4.436093650E0,1.805465827E0,4.791079909E0
3.880541958E0,-3.209329095E-1,4.884994336E0,1.022452315E0,5.001157500E0
3.890594958E0,-4.730280519E-1,5.255602559E0,3.089920181E-1,5.285885911E0
3.900647958E0,-4.287447488E-1,5.414254476E0,-1.237639207E-1,5.432613653E0
3.910700958E0,-1.533417687E-1,5.325652787E0,-3.808104444E-1,5.341451853E0
3.920754958E0,2.012246177E-1,5.045563556E0,-4.278770220E-1,5.067670243E0
3.930807958E0,5.351915556E-1,4.559740042E0,-1.462090427E-1,4.593368735E0
3.940860958E0,7.832590950E-1,3.870422899E0,2.003718013E-1,3.953962200E0
3.950913958E0,8.999104625E-1,3.236675354E0,7.012717760E-1,3.431863676E0
3.960967958E0,9.728281653E-1,2.665891796E0,1.121106538E0,3.051270814E0
3.971020958E0,1.121986544E0,1.947207597E0,1.704099081E0,2.820359003E0
3.981073958E0,1.169343435E0,1.226070490E0,2.336549714E0,2.886187361E0
3.991126958E0,1.065018876E0,7.824083251E-1,2.834186942E0,3.127146241E0
4.001180958E0,7.882450157E-1,5.314125001E-1,3.113477443E0,3.255375745E0
4.011233958E0,3.834279504E-1,3.124605864E-1,3.052493323E0,3.092307245E0
4.021286958E0,1.006393522E-2,1.247848445E-1,2.701618284E0,2.704517312E0
4.031339958E0,-3.381906742E-1,-8.186101913E-6,2.145873181E0,2.172359234E0
4.041393958E0,-5.845812321E-1,-4.352111846E-2,1.610945919E0,1.714285874E0
4.051446958E0,-6.328909278E-1,-2.750471771E-2,1.165106251E0,1.326190036E0
4.061499958E0,-6.315071842E-1,8.038167357E-3,7.721885616E-1,9.975675969E-1
4.071552958E0,-5.340490097E-1,1.562726855E-2,4.443521369E-1,6.949110575E-1
4.081606958E0,-3.526663336E-1,-1.215761849E-1,1.937697101E-1,4.203581951E-1
4.091659958E0,-1.522769907E-1,-4.205583546E-1,2.024902475E-1,4.909785248E-1
4.101712958E0,1.264109552E-1,-8.318134966E-1,2.221175963E-1,8.701894330E-1
4.111765958E0,3.250008175E-1,-1.202118249E0,1.719905859E-1,1.257097680E0
4.121818958E0,4.469597027E-1,-1.390224053E0,-9.708015203E-2,1.463530133E0
4.131872958E0,4.354851267E-1,-1.440334399E0,-4.587579221E-1,1.573108168E0
4.141925958E0,3.087098899E-1,-1.468513593E0,-7.732632798E-1,1.688126201E0
4.151978958E0,2.165165484E-1,-1.487731052E0,-1.110662241E0,1.869169257E0
4.162031958E0,1.415008646E-1,-1.554581099E0,-1.454307198E0,2.133484079E0
4.172085958E0,1.609554282E-1,-1.665473983E0,-1.682764345E0,2.373058381E0
4.182138958E0,2.626987347E-1,-1.842776472E0,-1.807101878E0,2.594311652E0
4.192191458E0,3.841293240E-1,-2.087162750E0,-1.862733457E0,2.823752754E0
4.202244458E0,4.982640499E-1,-2.281823283E0,-1.723386707E0,2.902593031E0
4.212298458E0,5.847876388E-1,-2.593417897E0,-1.414872991E0,3.011587381E0
4.222351458E0,8.045248336E-1,-2.964566402E0,-1.061995280E0,3.250192016E0
4.232404458E0,1.075880079E0,-3.217935027E0,-7.078715283E-1,3.466079325E0
4.242457458E0,1.165359435E0,-3.172158638E0,-7.891606897E-1,3.470364193E0
4.252511458E0,1.210264589E0,-3.307437480E0,-5.122839189E-1,3.558977083E0
4.262564458E0,1.278327934E0,-3.548236054E0,-8.400045687E-1,3.863898171E0
4.272617458E0,1.343797746E0,-3.394874697E0,-1.320059804E0,3.882463712E0
4.282670458E0,1.607529391E0,-3.124995289E0,-1.375308976E0,3.773754242E0
4.292724458E0,1.809368697E0,-3.012994797E0,-1.411626617E0,3.787432169E0
4.302777458E0,1.763692003E0,-3.023993409E0,-1.289674163E0,3.730737872E0
4.312830458E0,1.760332631E0,-3.006211442E0,-1.077488648E0,3.646513402E0
4.322883458E0,1.723534349E0,-3.003007752E0,-1.157807756E0,3.650910162E0
4.332937458E0,1.612830184E0,-3.083095603E0,-1.142838299E0,3.662346117E0
4.342990458E0,1.388411124E0,-3.375823299E0,-1.014076763E0,3.788432403E0
4.353043458E0,1.217050868E0,-3.679654564E0,-6.899936664E-1,3.936643467E0
4.363096458E0,1.225414287E0,-3.954070827E0,-3.851444006E-2,4.139782559E0
4.373150458E0,1.275306385E0,-4.436233107E0,6.946252459E-1,4.667876903E0
4.383203458E0,1.238836863E0,-4.959158081E0,1.386696428E0,5.296309340E0
4.393256458E0,1.240480076E0,-5.398753508E0,2.087125620E0,5.919579682E0
4.403309458E0,1.406645958E0,-5.627082016E0,2.486015655E0,6.310545041E0
4.413362458E0,1.769814184E0,-5.683191898E0,2.710594929E0,6.540507416E0
4.423416458E0,2.069048368E0,-5.395610629E0,2.426304474E0,6.267418018E0
4.433469458E0,2.144309928E0,-4.620437357E0,1.846096959E0,5.417986749E0
4.443522458E0,1.844453599E0,-3.702068696E0,9.261439955E-1,4.238521489E0
4.453575458E0,1.386163454E0,-2.875721177E0,-5.434197575E-1,3.238290666E0
4.463629458E0,7.225553486E-1,-2.127791251E0,-2.002565526E0,3.009958559E0
4.473682458E0,1.627704039E-2,-1.485314398E0,-2.959208599E0,3.311093374E0
4.483735458E0,-5.054349290E-1,-9.408593908E-1,-3.520866407E0,3.679290844E0
4.493788458E0,-8.053291181E-1,-6.087971833E-1,-3.746233885E0,3.879878519E0
4.503842458E0,-9.511412810E-1,-4.935925631E-1,-3.685355600E0,3.837987656E0
4.513895458E0,-9.080016933E-1,-5.654555744E-1,-3.274806801E0,3.445078615E0
4.523948458E0,-8.321333393E-1,-8.556587344E-1,-2.616194556E0,2.875599367E0
4.534001458E0,-9.294579050E-1,-1.124288592E0,-2.116085710E0,2.570162557E0
4.544055458E0,-1.179963733E0,-1.318712898E0,-1.420440125E0,2.269133814E0
4.554108458E0,-1.382418313E0,-1.539234497E0,-6.741874731E-1,2.175971502E0
4.564161458E0,-1.445104850E0,-1.753199613E0,3.136797309E-2,2.272228171E0
4.574214458E0,-1.476170814E0,-2.012246761E0,7.052899826E-1,2.593386061E0
4.584268458E0,-1.500257834E0,-2.143797419E0,1.370469820E0,2.953782062E0
4.594321458E0,-1.598342831E0,-2.068653974E0,1.847389778E0,3.201074517E0
4.604374458E0,-1.835945900E0,-1.934493119E0,2.208118545E0,3.462477218E0
4.614427458E0,-2.140270671E0,-1.644343753E0,2.305967022E0,3.549944905E0
4.624481458E0,-2.451910893E0,-1.191265524E0,2.032661145E0,3.400395846E0
4.634534458E0,-2.823914846E0,-6.727218685E-1,1.607353390E0,3.318227643E0
4.644587458E0,-3.087033118E0,-6.712048084E-2,1.270863086E0,3.339067477E0
4.654640458E0,-3.174634641E0,5.762398866E-1,8.233628082E-1,3.329907480E0
4.664693458E0,-3.160408658E0,1.066577159E0,4.238833737E-1,3.362357333E0
4.674747458E0,-2.936661735E0,1.420337799E0,3.717045754E-1,3.283215786E0
4.684800458E0,-2.511539044E0,1.757102045E0,4.719656128E-1,3.101288040E0
4.694853458E0,-2.032045726E0,2.023811384E0,6.778256106E-1,2.946942468E0
4.704906458E0,-1.576748186E0,2.196226186E0,1.048320982E0,2.899745020E0
4.714960458E0,-1.241182912E0,2.442971085E0,1.409864851E0,3.081616725E0
4.725013458E0,-1.075309098E0,2.729013659E0,1.773378062E0,3.427634017E0
4.735066458E0,-1.084334568E0,2.962253829E0,2.024514804E0,3.748251512E0
4.745119458E0,-1.152120462E0,3.143181591E0,2.181533595E0,3.995755360E0
4.755173458E0,-1.237429584E0,3.375307282E0,2.264982133E0,4.249008741E0
4.765226458E0,-1.360475759E0,3.683471919E0,2.291571761E0,4.546444854E0
4.775279458E0,-1.514128307E0,3.938739427E0,2.321802451E0,4.816328418E0
4.785332458E0,-1.520702332E0,4.065733350E0,2.462821505E0,4.990812862E0
4.795386458E0,-1.431295188E0,4.063937085E0,2.547884459E0,5.005587455E0
4.805439458E0,-1.314631542E0,4.062464172E0,2.739298911E0,5.073029643E0
4.815492458E0,-1.128723705E0,4.175772686E0,2.993280909E0,5.260306581E0
4.825545458E0,-9.072513494E-1,4.218291884E0,3.101350318E0,5.313705414E0
4.835599458E0,-6.611364877E-1,4.170810739E0,3.183520655E0,5.288437145E0
4.845652458E0,-3.959594107E-1,4.154123955E0,3.183635260E0,5.248720145E0
4.855705458E0,-1.927131182E-1,4.236952688E0,3.126961707E0,5.269420836E0
4.865758458E0,1.168215215E-2,4.321876479E0,3.100550419E0,5.319038040E0
4.875811458E0,2.378185397E-1,4.409948410E0,3.080780983E0,5.384739001E0
4.885865458E0,4.254013109E-1,4.471259390E0,3.010961720E0,5.407311466E0
4.895918458E0,4.414601040E-1,4.391205745E0,3.050106490E0,5.364766959E0
4.905971458E0,4.194289649E-1,4.343272026E0,3.105442784E0,5.355717266E0
4.916024458E0,4.103906313E-1,4.306997654E0,3.039133605E0,5.287247141E0
4.926078458E0,2.690809706E-1,4.003593235E0,3.313803052E0,5.204080517E0
4.936131458E0,1.077817261E-1,3.492434905E0,3.862574766E0,5.208474084E0
4.946184458E0,2.111818412E-1,3.074266600E0,4.188765784E0,5.200141507E0
4.956237458E0,3.719121516E-1,2.746469936E0,4.487945005E0,5.274757447E0
4.966291458E0,5.700011998E-1,2.271394774E0,4.946484826E0,5.472828128E0
4.976344458E0,8.315301991E-1,1.818753625E0,5.140668519E0,5.515956856E0
4.986397458E0,1.182467219E0,1.534993511E0,5.153938190E0,5.506134095E0
4.996450458E0,1.437671285E0,1.499270532E0,4.957692769E0,5.375260779E0
5.006504458E0,1.632716857E0,1.536865790E0,4.754989682E0,5.257152050E0
5.016557458E0,1.563296374E0,1.637420357E0,4.261895156E0,4.825846175E0
5.026610458E0,1.236904796E0,1.922568307E0,3.634940321E0,4.294064917E0
5.036663458E0,9.600078526E-1,2.317611167E0,2.674805877E0,3.667086456E0
5.046716458E0,7.144753736E-1,2.640728304E0,1.244873967E0,3.005600144E0
5.056770458E0,3.774500495E-1,2.878848267E0,-1.655551404E-1,2.908202949E0
5.066823458E0,1.326370704E-1,3.101155898E0,-1.315380862E0,3.371199684E0
5.076876458E0,-9.511110216E-2,3.097041213E0,-2.031570640E0,3.705130181E0
5.086929458E0,-2.895307302E-1,2.839213209E0,-2.417383962E0,3.740147712E0
5.096983458E0,-4.267113796E-1,2.513483243E0,-2.481455412E0,3.557710159E0
5.107036458E0,-3.744176835E-1,2.128516013E0,-2.031158411E0,2.965868087E0
5.117089458E0,-1.696598858E-2,1.678820398E0,-1.346837128E0,2.152369863E0
5.127142458E0,4.492611668E-1,1.133837095E0,-5.471888727E-1,1.336726531E0
5.137196458E0,7.706381723E-1,5.865616840E-1,3.464820260E-1,1.028585240E0
5.147249458E0,9.917500475E-1,3.335690349E-2,9.503707641E-1,1.374003431E0
5.157302458E0,8.948906279E-1,-3.795126548E-1,1.206760061E0,1.549557658E0
5.167355458E0,6.483059424E-1,-5.621980906E-1,1.375342889E0,1.621090791E0
5.177409458E0,2.106734258E-1,-6.126814887E-1,1.284256133E0,1.438428210E0
5.187462458E0,-4.305763891E-1,-7.344690505E-1,1.115479762E0,1.403259033E0
5.197516292E0,-1.094411367E0,-9.798296213E-1,1.041064587E0,1.800449333E0
5.207569292E0,-1.668196885E0,-1.160322644E0,8.919436312E-1,2.219187447E0
5.217623292E0,-2.119564803E0,-1.240885873E0,7.243390417E-1,2.560667833E0
5.227676292E0,-2.325102327E0,-1.333283867E0,6.337346810E-1,2.754154380E0
5.237729292E0,-2.275017417E0,-1.386999899E0,5.309803909E-1,2.716875621E0
5.247782292E0,-2.181308769E0,-1.420963158E0,3.016046458E-1,2.620726923E0
5.257836292E0,-1.984452899E0,-1.432299155E0,1.184300905E-1,2.450216289E0
5.267889292E0,-1.693378211E0,-1.387204551E0,-1.159748447E-1,2.192103190E0
5.277942292E0,-1.430177493E0,-1.411417579E0,-3.886784577E-1,2.046601619E0
5.287995292E0,-1.186034605E0,-1.407363119E0,-5.104438001E-1,1.909948142E0
5.298049292E0,-9.194892794E-1,-1.351107642E0,-5.658759892E-1,1.729499359E0
5.308102292E0,-6.617179933E-1,-1.296681759E0,-6.709299892E-1,1.602935226E0
5.318155292E0,-5.346828479E-1,-1.275947971E0,-8.174629676E-1,1.606914645E0
5.328208292E0,-5.147026196E-1,-1.418765775E0,-9.304522240E-1,1.773007741E0
5.338261292E0,-4.384674990E-1,-1.628500722E0,-9.753249264E-1,1.948211247E0
5.348315292E0,-2.773103419E-1,-1.760271820E0,-1.022210825E0,2.054354613E0
5.358368292E0,-6.620597631E-2,-1.883859593E0,-1.023850384E0,2.145129322E0
5.368421292E0,6.548969239E-2,-2.039026570E0,-9.788391030E-1,2.262751477E0
5.378474292E0,1.644029465E-1,-2.349354970E0,-7.499749893E-1,2.471630957E0
5.388528292E0,3.118732336E-1,-2.677078982E0,-5.606918478E-1,2.752887963E0
5.398581292E0,5.334175104E-1,-2.852524395E0,-4.278700054E-1,2.933343213E0
5.408634292E0,7.565399507E-1,-2.861335564E0,-6.207696497E-1,3.024061651E0
5.418687292E0,8.619553086E-1,-2.787989553E0,-1.088652152E0,3.114645439E0
5.428741292E0,8.732720098E-1,-2.787725551E0,-1.589011844E0,3.325503930E0
5.438794292E0,8.269173306E-1,-2.788693265E0,-2.000689155E0,3.530348353E0
5.448847292E0,8.384614885E-1,-2.647740870E0,-2.172938188E0,3.526359277E0
5.458900292E0,8.969739908E-1,-2.480461385E0,-2.083137819E0,3.361058494E0
5.468954292E0,1.031877442E0,-2.463148949E0,-1.788600118E0,3.214181728E0
5.479007292E0,1.216634546E0,-2.516731372E0,-1.438183501E0,3.143645686E0
5.489060292E0,1.342641751E0,-2.791090624E0,-7.886964208E-1,3.196078188E0
5.499113292E0,1.323282497E0,-3.617178234E0,3.929843473E-1,3.871626486E0
5.509166292E0,1.120629697E0,-4.444097904E0,1.577499261E0,4.847094080E0
5.519220292E0,1.088581401E0,-4.799856830E0,2.499645515E0,5.520132494E0
5.529273292E0,1.109173540E0,-4.978533415E0,3.310517501E0,6.080755465E0
5.539326292E0,1.049452418E0,-5.174221011E0,3.966352319E0,6.603473644E0
5.549379292E0,1.211179971E0,-5.161971679E0,4.507301043E0,6.959071147E0
5.559433292E0,1.732673547E0,-4.777731843E0,4.598719921E0,6.853984541E0
5.569486292E0,2.341032774E0,-3.947635966E0,3.986020598E0,6.078867030E0
5.579539292E0,2.586976604E0,-2.625704760E0,2.893719783E0,4.686191164E0
5.589592292E0,2.340085817E0,-1.271134689E0,1.721770536E0,3.171163637E0
5.599646292E0,1.562269018E0,-1.802746287E-1,4.885793066E-1,1.646782671E0
5.609699292E0,7.985022014E-1,6.436278775E-1,-5.959967512E-1,1.186201812E0
5.619752292E0,9.040380120E-2,1.291684729E0,-1.666300340E0,2.110255698E0
5.629805292E0,-4.600405088E-1,1.716151654E0,-2.361399795E0,2.955168822E0
5.639859292E0,-8.434041399E-1,1.969159506E0,-2.731419203E0,3.471249137E0
5.649912292E0,-9.398928460E-1,2.170866812E0,-2.829879298E0,3.688397771E0
5.659965292E0,-6.750896984E-1,2.152883992E0,-2.444030893E0,3.326250530E0
5.670018292E0,-8.014798960E-1,1.824073714E0,-1.670012738E0,2.599722578E0
5.680072292E0,-9.157818523E-1,1.489425283E0,-1.261452577E0,2.155993200E0
5.690125292E0,-9.064824405E-1,1.171575902E0,-6.996374792E-1,1.638228651E0
5.700178292E0,-8.938509929E-1,8.966848460E-1,-5.418263912E-2,1.267260458E0
5.710231292E0,-7.811043960E-1,7.028113478E-1,5.231006831E-1,1.173755593E0
5.720285292E0,-6.248457438E-1,5.213359934E-1,1.014925779E0,1.300883453E0
5.730338292E0,-6.045874804E-1,3.569453260E-1,1.269063313E0,1.450330197E0
5.740391292E0,-6.618112564E-1,3.476248643E-1,1.421889650E0,1.606426893E0
5.750444292E0,-6.895867002E-1,4.603501189E-1,1.200511141E0,1.458999332E0
5.760497292E0,-9.471273136E-1,6.768353847E-1,6.175741464E-1,1.317783788E0
5.770551292E0,-1.379528619E0,9.457064402E-1,8.985767126E-2,1.674972920E0
5.780604292E0,-1.700568825E0,1.231314858E0,-4.144904065E-1,2.140063762E0
5.790657292E0,-2.045814165E0,1.515222321E0,-9.093238950E-1,2.703354254E0
5.800710292E0,-2.342262736E0,1.697267779E0,-1.153836327E0,3.114201488E0
5.810764292E0,-2.446429128E0,1.766480101E0,-1.212925950E0,3.252177238E0
5.820817292E0,-2.281142375E0,1.754906123E0,-1.128898537E0,3.091555910E0
5.830870292E0,-1.864937273E0,1.602640242E0,-8.319687402E-1,2.595884967E0
5.840923292E0,-1.371692180E0,1.343646010E0,-2.777772421E-1,1.940124799E0
5.850977292E0,-9.689722189E-1,1.067073587E0,2.948031646E-1,1.471211102E0
5.861030292E0,-6.581049988E-1,9.391157511E-1,7.350780380E-1,1.362123454E0
5.871083292E0,-3.919143069E-1,9.958062610E-1,9.500614464E-1,1.431028890E0
5.881136292E0,-2.592573559E-1,1.151921949E0,8.771928602E-1,1.470920075E0
5.891190292E0,-2.913609087E-1,1.290041953E0,7.763687360E-1,1.533573550E0
5.901243292E0,-3.946680531E-1,1.342391783E0,8.383100456E-1,1.631116888E0
5.911296292E0,-5.781758997E-1,1.327005127E0,1.055485575E0,1.791446281E0
5.921349292E0,-7.434623605E-1,1.393216074E0,1.358392981E0,2.083031157E0
5.931402292E0,-7.208856761E-1,1.526874653E0,1.622874239E0,2.341952851E0
5.941456292E0,-6.047757608E-1,1.522989762E0,1.893527234E0,2.504135963E0
5.951509292E0,-4.678602827E-1,1.474307891E0,2.141364977E0,2.641575471E0
5.961562292E0,-2.365909168E-1,1.503813234E0,2.329584510E0,2.782875041E0
5.971615292E0,8.220542014E-2,1.526629947E0,2.370763527E0,2.820970830E0
5.981669292E0,3.894143298E-1,1.708798196E0,2.330865051E0,2.916259021E0
5.991722292E0,6.222580585E-1,1.948259219E0,2.157515572E0,2.972842498E0
6.001775292E0,5.675751901E-1,2.095853467E0,1.899635235E0,2.885022942E0
6.011828292E0,3.126743022E-1,2.028773332E0,2.245175275E0,3.042120718E0
6.021882292E0,1.369376975E-1,1.583728300E0,3.113119009E0,3.495490985E0
6.031935292E0,3.611009422E-1,1.143435300E0,3.897930540E0,4.078198214E0
6.041988292E0,8.382047957E-1,9.868018413E-1,4.121135718E0,4.319736654E0
6.052041292E0,1.105728068E0,9.459865218E-1,4.502926156E0,4.732216080E0
6.062095292E0,1.277739704E0,6.670725811E-1,4.955210626E0,5.160592691E0
6.072148292E0,1.497113494E0,3.941409266E-1,5.235487552E0,5.459581101E0
6.082201292E0,1.969487827E0,4.028883612E-1,5.257087752E0,5.628336607E0
6.092254292E0,2.330212794E0,7.843618798E-1,4.732848031E0,5.333382201E0
6.102307292E0,2.148820762E0,1.434447130E0,3.889925702E0,4.669752799E0
6.112361292E0,1.402622197E0,2.079340637E0,2.780830514E0,3.744866468E0
6.122414292E0,5.691197321E-1,2.552076328E0,1.578678060E0,3.054376413E0
6.132467292E0,-1.463069835E-1,2.986221566E0,1.160795099E-1,2.992056053E0
6.142520292E0,-9.111891568E-1,3.325862349E0,-1.147672777E0,3.634388373E0
6.152574292E0,-1.396983435E0,3.465887377E0,-1.976981034E0,4.227575196E0
6.162627292E0,-1.514754836E0,3.395182845E0,-2.435145464E0,4.444286466E0
6.172680292E0,-1.565340268E0,3.070578469E0,-2.311165781E0,4.149726443E0
6.182733292E0,-1.533086442E0,2.577284260E0,-1.605044324E0,3.401310847E0
6.192786333E0,-1.310054926E0,1.986794124E0,-9.667061305E-1,2.568679728E0
6.202839333E0,-1.139736059E0,1.323998196E0,-6.690869468E-1,1.870734308E0
6.212892333E0,-9.521108955E-1,7.587504905E-1,-4.154212832E-2,1.218172078E0
6.222945333E0,-6.506743571E-1,4.483361372E-1,7.088971299E-1,1.061563729E0
6.232999333E0,-3.947548842E-1,2.993330026E-1,1.087015516E0,1.194585450E0
6.243052333E0,-3.355702445E-1,1.760985473E-1,1.150941955E0,1.211728300E0
6.253105333E0,-4.519330519E-1,1.877169648E-1,1.098743277E0,1.202795881E0
6.263158333E0,-8.188078272E-1,3.249739203E-1,8.307180208E-1,1.210845464E0
6.273212333E0,-1.336297522E0,5.697652647E-1,4.764118356E-1,1.528820382E0
6.283265333E0,-1.756856461E0,8.852760512E-1,1.378141952E-1,1.972118421E0
6.293318333E0,-2.148081382E0,1.145773017E0,-5.674079597E-2,2.435214353E0
6.303371333E0,-2.406573922E0,1.310178302E0,-2.615974116E-1,2.752562157E0
6.313424333E0,-2.571074517E0,1.357693361E0,-4.500479096E-1,2.942158826E0
6.323478333E0,-2.609822553E0,1.274926024E0,-3.629565561E-1,2.927173993E0
6.333531333E0,-2.492815382E0,1.157958030E0,-1.230265868E-1,2.751387081E0
6.343584333E0,-2.290663689E0,9.908238485E-1,1.429451269E-1,2.499861065E0
6.353637333E0,-2.040229489E0,7.735144177E-1,3.313897777E-1,2.206961737E0
6.363691333E0,-1.807313255E0,5.713054213E-1,4.039525545E-1,1.938027025E0
6.373744333E0,-1.683414848E0,3.413183498E-1,4.278904706E-1,1.770162146E0
6.383797333E0,-1.661084624E0,6.606008828E-2,4.387212682E-1,1.719314519E0
6.393850333E0,-1.610266473E0,-1.166253474E-1,5.149151659E-1,1.694608277E0
6.403904333E0,-1.619353631E0,-2.667216191E-1,5.507305312E-1,1.731112567E0
6.413957333E0,-1.672293736E0,-4.608173114E-1,5.331210566E-1,1.814700250E0
6.424010333E0,-1.625105537E0,-6.144105104E-1,3.668239045E-1,1.775676788E0
6.434063333E0,-1.403293457E0,-7.859339038E-1,1.229523271E-1,1.613084593E0
6.444117333E0,-1.210548179E0,-1.038125484E0,-1.237153888E-1,1.599511461E0
6.454170333E0,-1.111042895E0,-1.348646403E0,-3.016034764E-1,1.773197138E0
6.464223333E0,-9.186101505E-1,-1.560926644E0,-2.486154234E-1,1.828153775E0
6.474276333E0,-7.082185605E-1,-1.760202677E0,-1.460985303E-2,1.897393064E0
6.484329333E0,-4.024626839E-1,-1.904497633E0,3.283170658E-1,1.974051555E0
6.494383333E0,2.248646182E-1,-1.927004590E0,5.929550296E-1,2.028671105E0
6.504436333E0,9.479108405E-1,-1.987248160E0,7.536359310E-1,2.327156490E0
6.514489333E0,1.373383780E0,-2.180723171E0,7.815195483E-1,2.693048339E0
6.524542333E0,1.543700600E0,-2.330249339E0,6.688115430E-1,2.874088100E0
6.534596333E0,1.739163664E0,-2.465586653E0,1.905046248E-1,3.023259798E0
6.544649333E0,1.712658820E0,-2.489697939E0,-4.665814966E-1,3.057694288E0
6.554702333E0,1.473130555E0,-2.517858715E0,-8.779506594E-1,3.046395165E0
6.564755333E0,1.124584754E0,-2.776952056E0,-8.196182513E-1,3.106111342E0
6.574809333E0,6.628397816E-1,-3.363404690E0,-1.430468684E-1,3.431080018E0
6.584862333E0,3.095869723E-1,-4.130601191E0,8.989094192E-1,4.238602179E0
6.594915333E0,4.136937234E-1,-4.846038139E0,1.860392817E0,5.207330369E0
6.604968333E0,5.939426243E-1,-5.309159546E0,2.805382388E0,6.034079322E0
6.615021333E0,9.290418756E-1,-5.554077190E0,3.706401483E0,6.741535744E0
6.625075333E0,1.542619450E0,-5.531329767E0,4.309447052E0,7.179597319E0
6.635128333E0,2.438673966E0,-4.996299010E0,4.595244336E0,7.212933177E0
6.645181333E0,3.188941609E0,-3.853985791E0,3.970547111E0,6.386532660E0
6.655234333E0,3.391774503E0,-2.594405492E0,2.644396262E0,5.022738867E0
6.665288333E0,2.786423961E0,-1.628950227E0,1.002541961E0,3.379752612E0
6.675341333E0,1.913165692E0,-1.046632306E0,-5.320065773E-1,2.244698899E0
6.685394333E0,1.045592671E0,-5.344472051E-1,-2.088100351E0,2.395633721E0
6.695447333E0,2.267456675E-1,-2.040339124E-1,-3.344605014E0,3.358485691E0
6.705501333E0,-3.759217335E-1,-8.637390018E-2,-4.165173438E0,4.182995024E0
6.715554333E0,-4.549874912E-1,1.045335978E-3,-4.319670909E0,4.343566676E0
6.725607333E0,-2.427228919E-1,2.571079195E-2,-4.070158523E0,4.077470521E0
6.735660333E0,-4.296168610E-2,-1.190734304E-1,-3.561508648E0,3.563757573E0
6.745714333E0,5.544288951E-1,-3.893264023E-1,-2.850306546E0,2.929712248E0
6.755767333E0,6.828498307E-1,-8.108496206E-1,-2.040523311E0,2.299455671E0
6.765820333E0,7.425528261E-1,-1.279684926E0,-1.140556131E0,1.868113085E0
6.775873333E0,8.801544750E-1,-1.654953526E0,-1.723466814E-1,1.882351309E0
6.785927333E0,9.564489448E-1,-1.865423615E0,6.007464445E-1,2.180710008E0
6.795980333E0,9.728416139E-1,-2.055778112E0,1.251309997E0,2.595846906E0
6.806033333E0,8.224860182E-1,-2.069222031E0,1.601895599E0,2.743033462E0
6.816086333E0,5.019936964E-1,-1.854244323E0,1.501839799E0,2.438389317E0
6.826139333E0,1.023420614E-1,-1.525143292E0,1.054868694E0,1.857224790E0
6.836193333E0,-3.432379907E-1,-1.158001737E0,4.750909495E-1,1.297879714E0
6.846246333E0,-6.521446395E-1,-8.194239776E-1,-1.762292325E-1,1.061981652E0
6.856299333E0,-7.689857492E-1,-4.879051226E-1,-7.938361233E-1,1.208125110E0
6.866352333E0,-6.699125737E-1,-1.287893102E-1,-1.310270396E0,1.477219704E0
6.876406333E0,-3.286295995E-1,1.926101341E-1,-1.650847319E0,1.694223405E0
6.886459333E0,1.098197731E-1,5.421801478E-1,-1.907444192E0,1.986042054E0
6.896512333E0,5.134975085E-1,6.965931264E-1,-2.055120301E0,2.229897111E0
6.906565333E0,9.183835709E-1,5.669073649E-1,-2.015037637E0,2.285867237E0
6.916619333E0,1.256479228E0,3.955527368E-1,-1.923483104E0,2.331306344E0
6.926672333E0,1.522511460E0,2.129364810E-1,-1.747468464E0,2.327451208E0
6.936725333E0,1.620143005E0,-2.029078849E-2,-1.557024066E0,2.247131285E0
6.946778333E0,1.519423838E0,-2.455365720E-1,-1.382085899E0,2.068598182E0
6.956831333E0,1.234362719E0,-4.059263917E-1,-1.300116706E0,1.838132478E0
6.966885333E0,8.312299445E-1,-5.391172300E-1,-1.339469637E0,1.666064079E0
6.976938333E0,4.388037139E-1,-6.123291209E-1,-1.428677098E0,1.615120398E0
6.986991333E0,1.585446212E-1,-5.492362022E-1,-1.534440950E0,1.637469337E0
6.997044333E0,-6.511547059E-2,-5.614209956E-1,-1.659782449E0,1.753371420E0
7.007098333E0,-2.343102103E-1,-8.242762895E-1,-1.614645452E0,1.827953121E0
7.017151333E0,-1.711067793E-1,-1.027606270E0,-1.442227435E0,1.779121174E0
7.027204333E0,1.188525519E-1,-1.096213113E0,-1.245937575E0,1.663781704E0
7.037257333E0,3.529823756E-1,-1.131092705E0,-9.850570321E-1,1.540877873E0
7.047311333E0,5.333172306E-1,-1.257219193E0,-7.470958203E-1,1.556656524E0
7.057364333E0,7.119017217E-1,-1.410534357E0,-6.768023479E-1,1.718857950E0
7.067417333E0,6.901641127E-1,-1.460464462E0,-6.435808074E-1,1.738815460E0
7.077470333E0,4.152713022E-1,-1.539519841E0,-6.508775479E-1,1.722269775E0
7.087524333E0,8.034951389E-2,-1.924357117E0,-3.049018908E-1,1.950018338E0
7.097577333E0,-5.151587024E-1,-2.769761735E0,4.936546898E-1,2.860185922E0
7.107630333E0,-1.263497056E0,-3.971655158E0,1.316462013E0,4.370759858E0
7.117683333E0,-1.358883854E0,-4.948338978E0,1.893782172E0,5.469829511E0
7.127736333E0,-8.560975680E-1,-5.285753142E0,2.340530498E0,5.843814878E0
7.137790333E0,-3.566216826E-1,-5.550149615E0,3.162934948E0,6.398085437E0
7.147843333E0,3.208776534E-1,-5.905098410E0,3.974806808E0,7.125464115E0
7.157896333E0,1.246118839E0,-5.839981477E0,4.310601878E0,7.364746049E0
7.167949333E0,2.099410620E0,-4.860961403E0,4.057388788E0,6.670747671E0
7.178003333E0,2.461352977E0,-3.465262894E0,3.415979637E0,5.453001218E0
7.188056333E0,1.943267158E0,-2.264154898E0,2.365132658E0,3.807431830E0
7.198110292E0,1.073644688E0,-1.588553422E0,1.055229467E0,2.188543835E0
7.208163292E0,9.698221117E-2,-1.139230129E0,-5.985379511E-1,1.290541946E0
7.218217292E0,-8.970530744E-1,-7.837916301E-1,-1.788244607E0,2.148686183E0
7.228270292E0,-1.520301651E0,-5.008952969E-1,-2.217240202E0,2.734660367E0
7.238323292E0,-1.777779846E0,-1.983378473E-1,-2.235839025E0,2.863357335E0
7.248376292E0,-1.504904471E0,-8.052800015E-2,-1.958481029E0,2.471208240E0
7.258430292E0,-1.198895410E0,-3.415902454E-1,-1.355084041E0,1.841273162E0
7.268483292E0,-9.261001414E-1,-6.085862450E-1,-9.599549353E-1,1.466135112E0
7.278536292E0,-6.364056891E-1,-8.104173651E-1,-5.718530130E-1,1.178475445E0
7.288589292E0,-2.538054121E-1,-1.121243947E0,-6.463979959E-2,1.151426715E0
7.298642292E0,1.385871971E-1,-1.385986576E0,4.414858317E-1,1.461189563E0
7.308696292E0,6.411366713E-1,-1.611150864E0,9.312965620E-1,1.968292820E0
7.318749292E0,8.922324836E-1,-1.529603548E0,1.159170157E0,2.116469058E0
7.328802292E0,7.151454645E-1,-1.137591300E0,1.400900484E0,1.941151506E0
7.338855292E0,3.360926932E-1,-6.829793465E-1,1.534545030E0,1.712964546E0
7.348909292E0,-8.925365388E-2,-1.982524779E-1,1.176303669E0,1.196227646E0
7.358962292E0,-5.150554991E-1,3.123661539E-1,5.713665247E-1,8.302496533E-1
7.369015292E0,-8.578230813E-1,7.371766037E-1,8.493197680E-2,1.134241255E0
7.379068292E0,-1.033182248E0,1.055553988E0,-2.604045796E-1,1.499823431E0
7.389122292E0,-1.127375337E0,1.292113037E0,-4.184805465E-1,1.765122438E0
7.399175292E0,-1.091386018E0,1.449762450E0,-2.970128274E-1,1.838790695E0
7.409228292E0,-9.577847412E-1,1.605415623E0,-8.828652442E-2,1.871498181E0
7.419281292E0,-9.507482019E-1,1.755841385E0,1.442981726E-1,2.001929838E0
7.429334292E0,-8.639819536E-1,1.678366070E0,5.243689442E-1,1.959168260E0
7.439388292E0,-6.978306895E-1,1.459989522E0,8.585238701E-1,1.831829771E0
7.449441292E0,-5.118918630E-1,1.147930055E0,1.150633807E0,1.704034873E0
7.459494292E0,-2.056462821E-1,8.096905562E-1,1.478763762E0,1.698420282E0
7.469547292E0,2.132997027E-1,5.907357189E-1,1.759134244E0,1.867891523E0
7.479601292E0,4.435373273E-1,4.584450960E-1,1.822327443E0,1.930744565E0
7.489654292E0,2.250312638E-1,2.356392825E-1,1.819540075E0,1.848483439E0
7.499707292E0,-1.471197465E-1,9.269123197E-2,1.645989452E0,1.655148682E0
7.509760292E0,-5.935339040E-1,3.386210293E-2,1.330659637E0,1.457423825E0
7.519814292E0,-8.253567088E-1,1.385149840E-1,1.129588509E0,1.405834377E0
7.529867292E0,-7.910937792E-1,3.438393769E-1,9.154365742E-1,1.257807221E0
7.539920292E0,-7.250255048E-1,4.540602690E-1,6.959221584E-1,1.102787541E0
7.549973292E0,-6.454279429E-1,5.134185711E-1,6.022854316E-1,1.021236309E0
7.560026292E0,-4.857951549E-1,6.175753158E-1,6.162503368E-1,9.985793312E-1
7.570080292E0,-2.078202769E-1,7.135392344E-1,8.407337165E-1,1.122123295E0
7.580133292E0,1.930382234E-1,6.535216588E-1,1.261964793E0,1.434192962E0
7.590186292E0,6.346816376E-1,5.012268341E-1,1.509427730E0,1.712431369E0
7.600239292E0,9.180640206E-1,3.983807427E-1,1.488243853E0,1.793437629E0
7.610293292E0,9.034070975E-1,3.408727920E-1,1.324659809E0,1.639226114E0
7.620346292E0,5.822566715E-1,3.467697090E-1,1.112679530E0,1.302815336E0
7.630399292E0,1.421975604E-1,5.339618862E-1,8.667181581E-1,1.027879277E0
7.640452292E0,-1.544387063E-1,7.411959797E-1,7.803354871E-1,1.087265500E0
7.650506292E0,-3.860755697E-1,7.821136254E-1,6.322611827E-1,1.077269823E0
7.660559292E0,-6.282795212E-1,7.090935963E-1,5.271107036E-1,1.084156160E0
7.670612292E0,-9.441487420E-1,2.237904847E-1,7.658782464E-1,1.236150685E0
7.680665292E0,-1.262898009E0,-8.401413935E-1,1.477166888E0,2.117255524E0
7.690719292E0,-1.145088600E0,-1.959885530E0,2.405303029E0,3.307243846E0
7.700772292E0,-8.206289425E-1,-2.532346946E0,2.826673855E0,3.882820881E0
7.710825292E0,-1.692178363E-1,-2.590636669E0,3.038755875E0,3.996757472E0
7.720878292E0,5.787071192E-1,-2.336348569E0,3.265070018E0,4.056366451E0
7.730931292E0,1.303176846E0,-1.924934383E0,3.611309969E0,4.294787767E0
7.740985292E0,1.753843099E0,-1.196979716E0,3.267190803E0,3.896570517E0
7.751038292E0,1.499422267E0,-1.467537108E-1,2.116585647E0,2.598025902E0
7.761091292E0,9.244547349E-1,7.181959569E-1,7.966614980E-1,1.416012546E0
7.771144292E0,7.312820256E-2,1.481806653E0,-8.282148278E-1,1.699128745E0
7.781198292E0,-1.163710813E0,2.062277877E0,-2.260425982E0,3.273643005E0
7.791251292E0,-2.135116643E0,2.388406330E0,-3.161098337E0,4.500638907E0
7.801304292E0,-2.481926697E0,2.717020142E0,-3.510534961E0,5.085864165E0
7.811357292E0,-2.329096560E0,2.743082060E0,-3.184690098E0,4.805355449E0
7.821410292E0,-2.231544245E0,2.801528196E0,-2.575155289E0,4.411323465E0
7.831464292E0,-1.816114484E0,2.693553512E0,-2.138772322E0,3.889453610E0
7.841517292E0,-1.338794868E0,2.094221801E0,-1.537552253E0,2.922704840E0
7.851570292E0,-1.088560351E0,1.426738161E0,-1.160246045E0,2.136987670E0
7.861623292E0,-7.512441275E-1,8.766552088E-1,-7.310077912E-1,1.366478864E0
7.871677292E0,-3.832762152E-1,4.144895294E-1,-1.973242325E-1,5.980293303E-1
7.881730292E0,1.159681204E-1,4.231425315E-2,4.088700628E-1,4.270993201E-1
7.891783292E0,6.333075419E-1,-1.184900245E-1,8.320049930E-1,1.052307292E0
7.901836292E0,9.162192240E-1,-2.605343878E-2,1.022482136E0,1.373173757E0
7.911890292E0,9.298216018E-1,1.738535088E-1,1.217017246E0,1.541403332E0
7.921943292E0,6.134629691E-1,5.230021575E-1,9.720680273E-1,1.262847703E0
7.931996292E0,7.986711860E-2,1.030582868E0,2.336032820E-1,1.059740675E0
7.942049292E0,-4.352272645E-1,1.330072869E0,-5.388484043E-1,1.499624690E0
7.952102292E0,-8.654077971E-1,1.376338670E0,-1.388178697E0,2.137821060E0
7.962156292E0,-1.159944036E0,1.307216688E0,-1.916466445E0,2.593671003E0
7.972209292E0,-1.131692629E0,1.342758988E0,-1.883988086E0,2.575488500E0
7.982262292E0,-7.813210353E-1,1.526550132E0,-1.658138212E0,2.385422436E0
7.992315292E0,-2.929399493E-1,1.608025235E0,-1.266104622E0,2.067505716E0
8.002369292E0,1.422840992E-1,1.526355127E0,-8.696101910E-1,1.762449042E0
8.012422292E0,4.013812414E-1,1.486318949E0,-5.297378576E-1,1.628150214E0
8.022475292E0,5.542961633E-1,1.501867573E0,-8.936358154E-2,1.603382766E0
8.032528292E0,6.331210157E-1,1.560054678E0,2.446287918E-1,1.701310102E0
8.042582292E0,5.586359668E-1,1.611554030E0,4.576820344E-1,1.765970945E0
8.052635292E0,4.604673555E-1,1.702658912E0,6.440023917E-1,1.877715803E0
8.062688292E0,3.646551722E-1,1.809784873E0,8.416336030E-1,2.028950912E0
8.072741292E0,3.539793259E-1,1.937446255E0,9.798214352E-1,2.199783944E0
8.082794292E0,4.088957906E-1,2.056957496E0,1.054623696E0,2.347445643E0
8.092848292E0,4.411779758E-1,2.076152735E0,1.192771767E0,2.434697656E0
8.102901292E0,3.898195419E-1,2.084931745E0,1.399001309E0,2.540886522E0
8.112954292E0,2.697045761E-1,2.191437024E0,1.554946550E0,2.700554677E0
8.123007292E0,1.028694803E-1,2.400753896E0,1.573917257E0,2.872527968E0
8.133061292E0,-1.704907751E-1,2.630669923E0,1.408145769E0,2.988706385E0
8.143114292E0,-4.625293761E-1,2.731867685E0,1.267282251E0,3.046807965E0
8.153167292E0,-5.685449508E-1,2.744250626E0,1.180859819E0,3.041148594E0
8.163220292E0,-3.757078716E-1,2.759309545E0,1.175549963E0,3.022724480E0
8.173274292E0,-7.287677228E-3,2.707719269E0,1.142253578E0,2.938799072E0
8.183327292E0,2.075837570E-1,2.290795836E0,1.654990656E0,2.833695581E0
8.193380292E0,3.967520007E-1,1.484214537E0,2.962920411E0,3.337544352E0
8.203436208E0,7.668880606E-1,7.841461176E-1,4.008083897E0,4.155446902E0
8.213489208E0,1.183739573E0,5.366805491E-1,4.616098430E0,4.795584438E0
8.223543208E0,1.423297659E0,3.869678548E-1,5.113097727E0,5.321587049E0
8.233596208E0,1.484458658E0,2.405643922E-1,5.337039655E0,5.544860775E0
8.243649208E0,1.494158019E0,2.565202743E-1,5.147855916E0,5.366444947E0
8.253702208E0,1.432075499E0,5.938826904E-1,4.622816296E0,4.875855555E0
8.263756208E0,1.201380330E0,1.193202999E0,3.908823903E0,4.259806615E0
8.273809208E0,6.636671627E-1,1.818013952E0,2.973304482E0,3.547699025E0
8.283862208E0,7.167604655E-2,2.285504106E0,2.005573919E0,3.041544545E0
8.293915208E0,-3.605127123E-1,2.615367175E0,8.927616566E-1,2.786958603E0
8.303969208E0,-6.971705389E-1,2.920319645E0,-1.877114099E-1,3.008246858E0
8.314022208E0,-8.943345577E-1,3.114467962E0,-9.891834122E-1,3.387953484E0
8.324075208E0,-9.222631985E-1,3.098080848E0,-1.532565163E0,3.577349623E0
8.334128208E0,-6.596530491E-1,2.903786935E0,-1.852782665E0,3.507124793E0
8.344181208E0,-2.284811211E-1,2.563530439E0,-1.784545659E0,3.131851712E0
8.354235208E0,1.906154296E-1,2.111253279E0,-1.409573075E0,2.545706366E0
8.364288208E0,5.039060283E-1,1.502042112E0,-8.516089529E-1,1.798691080E0
8.374341208E0,6.693357459E-1,8.638661787E-1,-2.495246655E-1,1.120953913E0
8.384394208E0,6.763483116E-1,3.529814985E-1,3.166249734E-1,8.260111081E-1
8.394448208E0,6.191341835E-1,-3.784259498E-2,7.812751347E-1,9.975720702E-1
8.404501208E0,5.698842555E-1,-3.446141329E-1,1.195576676E0,1.368550530E0
8.414554208E0,4.614727843E-1,-6.279096848E-1,1.474473660E0,1.667723082E0
8.424607208E0,2.813934526E-1,-8.777562395E-1,1.701290663E0,1.934949150E0
8.434660208E0,1.539957798E-1,-9.101515684E-1,1.821531637E0,2.042074455E0
8.444714208E0,-4.453414857E-2,-8.537043026E-1,1.570180301E0,1.787808856E0
8.454767208E0,-4.557960150E-1,-9.402618054E-1,9.310077095E-1,1.399506208E0
8.464820208E0,-1.176100186E0,-1.289072339E0,1.299684012E-1,1.749803111E0
8.474873208E0,-1.912266975E0,-1.685003975E0,-3.276189083E-1,2.569695999E0
8.484927208E0,-2.286363939E0,-1.696694313E0,-5.698556042E-1,2.903612761E0
8.494980208E0,-2.244822980E0,-1.341896524E0,-7.255441529E-1,2.714098526E0
8.505033208E0,-1.981705585E0,-1.066441942E0,-8.989140970E-1,2.423324574E0
8.515086208E0,-1.784974260E0,-1.100262237E0,-1.096009119E0,2.365997905E0
8.525140208E0,-1.824091840E0,-1.233463418E0,-1.329672627E0,2.572308756E0
8.535193208E0,-1.887756324E0,-1.239315750E0,-1.479091791E0,2.699488839E0
8.545246208E0,-1.927057507E0,-1.086667168E0,-1.581914493E0,2.719714991E0
8.555299208E0,-1.953623747E0,-9.206897128E-1,-1.684177617E0,2.738753282E0
8.565353208E0,-2.047774151E0,-8.359207271E-1,-1.697354318E0,2.788037682E0
8.575406208E0,-2.145742788E0,-8.698297539E-1,-1.540560645E0,2.781032724E0
8.585459208E0,-2.104982724E0,-9.336253618E-1,-1.304478729E0,2.646558773E0
8.595512208E0,-1.892158400E0,-1.018430308E0,-1.140062041E0,2.432530609E0
8.605565208E0,-1.662070172E0,-1.249571327E0,-9.165744424E-1,2.272446802E0
8.615619208E0,-1.486588798E0,-1.659125076E0,-3.915617198E-1,2.261849432E0
8.625672208E0,-1.243544310E0,-2.029319608E0,1.768876290E-1,2.386593756E0
8.635725208E0,-1.142068513E0,-2.214136792E0,4.270215744E-1,2.527660905E0
8.645778208E0,-1.143476815E0,-2.308386746E0,5.208237773E-1,2.628202047E0
8.655832208E0,-1.084157982E0,-2.328163491E0,5.938046300E-1,2.635971872E0
8.665885208E0,-9.331091988E-1,-2.172803994E0,5.023962772E-1,2.417472232E0
8.675938208E0,-6.250840178E-1,-1.939302746E0,3.693270975E-1,2.070755339E0
8.685991208E0,-1.945915362E-1,-1.722047841E0,2.382880712E-1,1.749312961E0
8.696044208E0,1.267167646E-1,-1.579496085E0,2.765323699E-2,1.584812204E0
8.706098208E0,3.423857591E-1,-1.544676208E0,7.334805787E-2,1.583866324E0
8.716151208E0,4.441533315E-1,-1.597424818E0,4.983102429E-1,1.731286033E0
8.726204208E0,5.093880853E-1,-1.902870938E0,1.270412850E0,2.344001459E0
8.736257208E0,5.871402660E-1,-2.493857941E0,1.970056177E0,3.231900751E0
8.746311208E0,7.874728909E-1,-2.973932472E0,2.408608460E0,3.907145073E0
8.756364208E0,1.167600673E0,-3.227672103E0,2.652785847E0,4.338021587E0
8.766417208E0,1.549635524E0,-3.463280688E0,2.854760370E0,4.748193357E0
8.776470208E0,2.137068443E0,-3.472935318E0,2.944665404E0,5.029850455E0
8.786524208E0,2.943971047E0,-3.074537618E0,2.778566473E0,5.083323591E0
8.796577208E0,3.537084536E0,-2.481733155E0,2.273127304E0,4.882322624E0
8.806630208E0,3.700401655E0,-1.764469975E0,9.877520138E-1,4.216868594E0
8.816683208E0,3.339745686E0,-1.321329820E0,1.372010561E0,3.844766146E0
8.826736208E0,2.681881592E0,-6.667888449E-1,1.096030753E0,2.972941246E0
8.836790208E0,2.335118023E0,9.917053163E-2,-3.374971944E-1,2.361464658E0
8.846843208E0,1.921364366E0,7.073476177E-1,-1.386466048E0,2.472704952E0
8.856896208E0,1.417707136E0,1.140157059E0,-2.067400623E0,2.753905768E0
8.866949208E0,9.787972954E-1,1.414273651E0,-2.625841877E0,3.138990231E0
8.877003208E0,6.302333683E-1,1.569044479E0,-2.967102340E0,3.415082865E0
8.887056208E0,3.380520952E-1,1.655705186E0,-3.107165959E0,3.536964684E0
8.897109208E0,6.317068666E-2,1.567248215E0,-2.894261820E0,3.291961268E0
8.907162208E0,-2.217018592E-1,1.316027857E0,-2.552901371E0,2.880692007E0
8.917216208E0,-3.743241280E-1,1.076425624E0,-2.128050283E0,2.414002627E0
8.927269208E0,-4.415381643E-1,8.745467028E-1,-1.600746621E0,1.876746555E0
8.937322208E0,-5.316949207E-1,6.472081277E-1,-1.125469730E0,1.402946885E0
8.947375208E0,-5.175268248E-1,3.608576980E-1,-8.244620848E-1,1.038166664E0
8.957428208E0,-4.644712365E-1,1.845065510E-1,-7.734509754E-1,9.208705708E-1
8.967482208E0,-4.409242067E-1,4.282559216E-2,-5.470350909E-1,7.039144679E-1
8.977535208E0,-2.580525371E-1,-6.349637657E-2,-2.037427211E-1,3.348641488E-1
8.987588208E0,2.727813810E-2,1.342491478E-2,1.778079808E-2,3.522047608E-2
8.997641208E0,2.517594713E-1,2.590506569E-1,3.544161129E-1,5.060640822E-1
9.007695208E0,4.103342056E-1,5.820499724E-1,4.577486926E-1,8.465755703E-1
9.017748208E0,4.503560579E-1,9.373697725E-1,3.050287753E-1,1.083755149E0
9.027801208E0,2.997583875E-1,1.317135027E0,-8.001797676E-2,1.353182415E0
9.037854208E0,1.057498187E-1,1.624831010E0,-5.623062640E-1,1.722627983E0
9.047908208E0,-1.367195964E-2,1.839775827E0,-8.860005212E-1,2.042047732E0
9.057961208E0,-1.909481362E-1,2.004770511E0,-1.140617527E0,2.314427432E0
9.068014208E0,-4.332585070E-1,2.186329189E0,-1.389958590E0,2.626734310E0
9.078067208E0,-7.317632514E-1,2.350270498E0,-1.523841117E0,2.895054510E0
9.088120208E0,-1.082666650E0,2.459313760E0,-1.554445444E0,3.104302157E0
9.098174208E0,-1.321048568E0,2.397579735E0,-1.540028549E0,3.140898890E0
9.108227208E0,-1.448308832E0,2.237937883E0,-1.319504904E0,2.974400382E0
9.118280208E0,-1.363609574E0,2.156384135E0,-1.035251870E0,2.753392461E0
9.128333208E0,-1.093225259E0,1.988734815E0,-8.595056176E-1,2.426717441E0
9.138387208E0,-7.817794570E-1,1.650916608E0,-6.739793122E-1,1.947036949E0
9.148440208E0,-6.125662985E-1,1.345623246E0,-1.563136160E-1,1.486732437E0
9.158493208E0,-4.172567242E-1,1.160874621E0,1.859315175E-1,1.247518973E0
9.168546208E0,-1.724873069E-1,9.927592769E-1,3.008363217E-1,1.051582306E0
9.178599208E0,1.408828139E-1,7.693848217E-1,5.439237875E-1,9.527088000E-1
9.188653208E0,3.956144249E-1,6.189356706E-1,7.362691158E-1,1.040040551E0
9.198706083E0,2.498699436E-1,8.398937640E-1,5.788000900E-1,1.050174303E0
9.208759083E0,1.381141573E-2,1.396779951E0,-6.681613326E-3,1.396864214E0
9.218812083E0,-3.250879410E-1,1.785650198E0,-7.064500701E-1,1.947639725E0
9.228866083E0,-1.029331564E0,1.327442791E0,-4.158352661E-1,1.730475889E0
9.238919083E0,-1.802941876E0,-5.998278469E-2,1.342326586E0,2.248563543E0
9.248972083E0,-1.592661968E0,-1.428097346E0,3.014874092E0,3.696687702E0
9.259025083E0,-1.012216179E0,-2.281979112E0,4.435804213E0,5.090026452E0
9.269078083E0,-3.516068181E-1,-2.698286248E0,6.112874540E0,6.691159180E0
9.279132083E0,3.630720386E-1,-2.896505689E0,7.641912078E0,8.180488171E0
9.289185083E0,1.533123280E0,-3.008590381E0,8.296131894E0,8.957002148E0
9.299238083E0,2.949428838E0,-2.602793908E0,8.051683196E0,8.961209120E0
9.309291083E0,3.632150907E0,-1.335478035E0,6.856070852E0,7.872847600E0
9.319345083E0,3.112078205E0,-7.150530785E-2,4.932545648E0,5.832679516E0
9.329398083E0,1.367780685E0,9.193451455E-1,4.528604788E0,4.819157689E0
9.339451083E0,-7.736035877E-1,1.546028084E0,3.412588837E0,3.825497081E0
9.349504083E0,-1.970692646E0,1.953359745E0,1.019236346E0,2.956025461E0
9.359558083E0,-2.697862910E0,2.135130091E0,-9.680737942E-1,3.574130895E0
9.369611083E0,-2.964228433E0,2.150513823E0,-2.149587332E0,4.246420329E0
9.379664083E0,-2.732868143E0,2.298110703E0,-2.663521335E0,4.454685959E0
9.389717083E0,-2.413794941E0,1.994234414E0,-2.569030915E0,4.050098363E0
9.399770083E0,-2.164148946E0,1.438636660E0,-2.120449487E0,3.354030728E0
9.409824083E0,-1.913021851E0,9.240875298E-1,-1.748958335E0,2.751807701E0
9.419877083E0,-1.750424817E0,5.076260269E-1,-1.156309699E0,2.158407594E0
9.429930083E0,-1.602432373E0,-7.801939845E-3,-4.610430139E-1,1.667456459E0
9.439983083E0,-1.315565927E0,-4.632094073E-1,1.646634400E-2,1.394828951E0
9.450037083E0,-1.061604979E0,-7.100285661E-1,4.355199176E-1,1.349378855E0
9.460090083E0,-1.103165818E0,-7.540545917E-1,9.051039594E-1,1.613935044E0
9.470143083E0,-1.222182384E0,-6.982837026E-1,9.577674919E-1,1.702541770E0
9.480196083E0,-1.527566670E0,-6.483436570E-1,5.405411732E-1,1.745277683E0
9.490249083E0,-2.019420418E0,-5.857362033E-1,-8.099153817E-2,2.104211338E0
9.500303083E0,-2.442922845E0,-5.503932931E-1,-5.818587685E-1,2.570868420E0
9.510356083E0,-2.551087272E0,-4.898148233E-1,-9.327408242E-1,2.760067078E0
9.520409083E0,-2.441481214E0,-3.333507876E-1,-1.085068978E0,2.692457605E0
9.530462083E0,-2.232818061E0,-1.534351780E-1,-1.086226727E0,2.487751465E0
9.540516083E0,-1.953412077E0,-9.317041129E-2,-9.617032528E-1,2.179305535E0
9.550569083E0,-1.619828132E0,-1.390840642E-1,-6.246691579E-1,1.741665614E0
9.560622083E0,-1.330338625E0,-1.732752192E-1,-1.400039774E-1,1.348861102E0
9.570675083E0,-1.005651218E0,-2.467077693E-1,3.233779228E-1,1.084791398E0
9.580729083E0,-7.009773687E-1,-3.665963016E-1,6.398315728E-1,1.017421526E0
9.590782083E0,-6.564531603E-1,-5.497737806E-1,8.230102211E-1,1.187656426E0
9.600835083E0,-9.477550122E-1,-6.237768728E-1,8.063713843E-1,1.391966939E0
9.610888083E0,-1.305200568E0,-5.519657555E-1,7.490838736E-1,1.602916519E0
9.620941083E0,-1.477023338E0,-4.725515038E-1,4.399427515E-1,1.611971616E0
9.630995083E0,-1.697601070E0,-4.238411276E-1,4.696483612E-3,1.749717907E0
9.641048083E0,-1.794389154E0,-3.669769554E-1,-3.435180724E-1,1.863466981E0
9.651101083E0,-1.779158034E0,-2.920266142E-1,-6.497373408E-1,1.916465879E0
9.661154083E0,-1.537153181E0,-2.330301087E-1,-8.112269121E-1,1.753633951E0
9.671208083E0,-1.208450198E0,-2.224269140E-1,-7.295682067E-1,1.429019028E0
9.681261083E0,-8.271871796E-1,-3.978973241E-1,-4.593935144E-1,1.026451807E0
9.691314083E0,-6.028265914E-1,-5.440633897E-1,-1.689757615E-1,8.294321427E-1
9.701367083E0,-3.705459496E-1,-7.199683942E-1,2.243173188E-1,8.402244039E-1
9.711420083E0,7.002040744E-2,-9.681078543E-1,6.271928161E-1,1.155641166E0
9.721474083E0,3.995621726E-1,-1.134333524E0,1.022436528E0,1.578524288E0
9.731527083E0,4.430055231E-1,-1.182827553E0,1.296503711E0,1.810043311E0
9.741580083E0,2.895947573E-1,-1.108570692E0,1.327748893E0,1.753770574E0
9.751633083E0,9.440446615E-2,-9.977745800E-1,1.053296378E0,1.453925574E0
9.761687083E0,-1.204903570E-1,-9.151737419E-1,6.849475193E-1,1.149440737E0
9.771740083E0,-3.326396200E-1,-8.469843900E-1,3.966809571E-1,9.926668401E-1
9.781793083E0,-3.873151794E-1,-7.314130032E-1,1.674619174E-1,8.444060180E-1
9.791846083E0,-2.939126337E-1,-6.306312713E-1,-8.010743916E-2,7.003553658E-1
9.801900083E0,-1.935358214E-1,-4.940274498E-1,-2.031872356E-1,5.681586821E-1
9.811953083E0,-5.550469458E-3,-3.979215901E-1,-1.793715262E-1,4.365163731E-1
9.822006083E0,1.278794834E-1,-6.284087446E-1,3.602908105E-1,7.355679307E-1
9.832059083E0,2.511010748E-1,-1.251896326E0,1.342952823E0,1.853056515E0
9.842112083E0,4.868026301E-1,-1.774142731E0,1.893237796E0,2.639869047E0
9.852166083E0,7.375142804E-1,-2.001510250E0,2.158702556E0,3.034792797E0
9.862219083E0,9.194767079E-1,-2.223661906E0,2.718281679E0,3.630311967E0
9.872272083E0,1.136434721E0,-2.397013724E0,3.209419143E0,4.163835960E0
9.882325083E0,1.238498455E0,-2.330370668E0,3.319675995E0,4.240843617E0
9.892379083E0,1.249680085E0,-1.996478283E0,3.119873713E0,3.909122386E0
9.902432083E0,1.178561571E0,-1.384079068E0,2.528759387E0,3.114370928E0
9.912485083E0,9.861951926E-1,-5.559373306E-1,1.664957820E0,2.013388143E0
9.922538083E0,6.216397154E-1,2.736071540E-1,5.969597876E-1,9.042443246E-1
9.932591083E0,1.406340149E-1,8.166468425E-1,-2.187987167E-1,8.570664326E-1
9.942645083E0,-3.392230001E-1,1.095960294E0,-9.090438133E-1,1.463749249E0
9.952698083E0,-7.748010975E-1,1.208131087E0,-1.452983388E0,2.042316868E0
9.962751083E0,-1.041961550E0,1.210047219E0,-1.691484883E0,2.326159765E0
9.972804083E0,-1.087209351E0,1.152600372E0,-1.706461941E0,2.328631389E0
9.982858083E0,-8.861104488E-1,1.019749586E0,-1.446691200E0,1.979392930E0
9.992911083E0,-4.533989489E-1,7.616643043E-1,-9.652080739E-1,1.310469284E0
1.000296408E1,-1.407743481E-1,5.241486503E-1,-4.344071925E-1,6.951682052E-1
1.001301708E1,-3.002545238E-4,4.215798631E-1,7.037124038E-3,4.216386987E-1
1.002307108E1,5.291262388E-2,4.362218758E-1,2.097817254E-1,4.869267327E-1
1.003312408E1,-1.395069641E-1,4.473067349E-1,2.387728053E-1,5.258877834E-1
1.004317708E1,-6.259505752E-1,4.060642764E-1,1.333866835E-1,7.579540398E-1
1.005323008E1,-1.128788025E0,3.507943475E-1,3.091422915E-3,1.182044261E0
1.006328308E1,-1.528582039E0,3.044089705E-1,-1.057936728E-1,1.562184424E0
1.007333708E1,-1.802845397E0,2.672388053E-1,-2.557648140E-1,1.840403148E0
1.008339008E1,-1.997422608E0,1.527579242E-1,-3.711485052E-1,2.037347116E0
1.009344308E1,-2.056942878E0,4.132958204E-2,-3.086534643E-1,2.080381960E0
1.010349608E1,-2.019911584E0,2.901563823E-2,-3.209478199E-1,2.045456481E0
1.011355008E1,-1.991386819E0,-6.473364741E-2,-3.334596920E-1,2.020150310E0
1.012360308E1,-1.913045824E0,-2.134327269E-1,-1.754813737E-1,1.932897195E0
1.013365608E1,-1.678756956E0,-2.754094121E-1,1.262448943E-1,1.705876032E0
1.014370908E1,-1.460909581E0,-3.150959265E-1,1.155760646E-1,1.498966335E0
1.015376208E1,-1.363278914E0,-4.542289612E-1,3.332550395E-1,1.475097376E0
1.016381608E1,-1.320304510E0,-2.532791626E-1,8.246550429E-1,1.577152584E0
1.017386908E1,-1.178873520E0,-5.988133550E-3,7.169563472E-1,1.379784417E0
1.018392208E1,-9.990450338E-1,6.425622225E-2,3.840942407E-1,1.072263133E0
1.019397508E1,-1.023797175E0,-5.149408937E-2,9.882437646E-2,1.029843946E0
1.020402604E1,-1.130169429E0,-1.848100215E-1,-2.346253753E-2,1.145420523E0
1.021407904E1,-1.165448605E0,-1.071657220E-1,-1.336310971E-1,1.177969530E0
1.022413204E1,-1.024070532E0,1.724846756E-1,-3.126406807E-1,1.084534745E0
1.023418504E1,-8.137634343E-1,4.434844100E-1,-4.510659099E-1,1.030703548E0
1.024423804E1,-6.825522074E-1,6.513108265E-1,-3.564415884E-1,1.008530572E0
1.025429204E1,-4.762039670E-1,8.035726145E-1,-2.252809399E-1,9.608593377E-1
1.026434504E1,-1.239355364E-1,9.492574543E-1,-1.404594755E-1,9.675632258E-1
1.027439804E1,2.773629668E-1,1.022306135E0,-3.236550808E-2,1.059758262E0
1.028445104E1,6.777481350E-1,8.740663540E-1,2.183011186E-1,1.127381880E0
1.029450504E1,8.307738617E-1,7.419078782E-1,3.542564839E-1,1.168807155E0
1.030455804E1,6.794809574E-1,9.245900980E-1,2.988441753E-1,1.185693494E0
1.031461104E1,5.531217501E-1,1.148490218E0,1.684810871E-1,1.285830210E0
1.032466404E1,3.817445371E-1,1.410454542E0,-1.899263352E-1,1.473493441E0
1.033471704E1,2.997867465E-2,1.650083088E0,-5.712010485E-1,1.746408759E0
1.034477104E1,-1.947944346E-1,1.760143181E0,-9.457719290E-1,2.007618846E0
1.035482404E1,-3.483195135E-1,1.757551988E0,-1.110112018E0,2.107762834E0
1.036487704E1,-3.893082029E-1,1.695769722E0,-9.534288579E-1,1.983991536E0
1.037493004E1,-3.194763681E-1,1.597865405E0,-7.064290202E-1,1.776029550E0
1.038498404E1,-2.357793233E-1,1.483444166E0,-4.234553576E-1,1.560612996E0
1.039503704E1,-2.577078438E-1,1.273556898E0,3.083850771E-1,1.335463164E0
1.040509004E1,-2.404106104E-1,6.631119695E-1,1.744226768E0,1.881446721E0
1.041514304E1,-9.329729587E-2,-1.223991805E-1,2.990870102E0,2.994827192E0
1.042519704E1,1.857982010E-2,-8.375981471E-1,3.959818055E0,4.047477597E0
1.043525004E1,2.253262559E-1,-1.347846358E0,4.946129900E0,5.131438659E0
1.044530304E1,5.872197881E-1,-1.513056512E0,5.716271936E0,5.942216079E0
1.045535604E1,1.087335944E0,-1.359248428E0,6.074398107E0,6.318873959E0
1.046540904E1,1.390495072E0,-8.685626623E-1,5.743491894E0,5.972903547E0
1.047546304E1,1.399338108E0,-1.063497430E-1,5.012789328E0,5.205527279E0
1.048551604E1,1.002529097E0,7.605871010E-1,3.883734085E0,4.082517333E0
1.049556904E1,2.012737343E-1,1.671094180E0,2.394345932E0,2.926766017E0
1.050562204E1,-6.159857503E-1,2.377183185E0,1.057070171E0,2.673543657E0
1.051567604E1,-1.233576854E0,2.769431075E0,-2.550555468E-2,3.031849414E0
1.052572904E1,-1.823229083E0,2.843522899E0,-7.984045529E-1,3.470912934E0
1.053578204E1,-2.120261207E0,2.679573404E0,-1.284883540E0,3.650554331E0
1.054583504E1,-2.132217008E0,2.361899732E0,-1.569112599E0,3.547821031E0
1.055588804E1,-2.048661174E0,1.919347368E0,-1.516424509E0,3.190681779E0
1.056594204E1,-1.815838788E0,1.402777441E0,-1.106498439E0,2.547428869E0
1.057599504E1,-1.565813308E0,8.995110977E-1,-6.584596324E-1,1.922097973E0
1.058604804E1,-1.417066574E0,4.308073542E-1,-2.013775223E-1,1.494732604E0
1.059610104E1,-1.227244319E0,-1.167341056E-1,3.186253059E-1,1.273293978E0
1.060615504E1,-1.001128104E0,-6.328102362E-1,6.708791184E-1,1.361170477E0
1.061620804E1,-7.215946510E-1,-9.326677340E-1,9.667172402E-1,1.524831192E0
1.062626104E1,-4.854551393E-1,-1.017291563E0,1.079176739E0,1.560503524E0
1.063631404E1,-5.046714288E-1,-9.968052578E-1,9.763657308E-1,1.483780312E0
1.064636804E1,-8.551263455E-1,-1.051259354E0,1.399054518E0,1.947752767E0
1.065642104E1,-1.231495537E0,-9.404436538E-1,1.399960837E0,2.088278207E0
1.066647404E1,-1.567505200E0,-6.475950672E-1,7.571770048E-1,1.857355362E0
1.067652704E1,-1.905869244E0,-4.233394365E-1,2.971315259E-1,1.974801508E0
1.068658004E1,-2.174524537E0,-4.104849176E-1,1.448320234E-1,2.217663443E0
1.069663404E1,-2.286353414E0,-5.632866959E-1,-4.151523113E-3,2.354723141E0
1.070668704E1,-2.271742684E0,-6.529800604E-1,-2.324630749E-1,2.375128809E0
1.071674004E1,-2.089756283E0,-5.964303222E-1,-3.024612629E-1,2.194149782E0
1.072679304E1,-1.849000394E0,-4.650224827E-1,-2.457152045E-1,1.922348649E0
1.073684704E1,-1.712509424E0,-3.915004702E-1,-1.904198402E-1,1.766980719E0
1.074690004E1,-1.651338193E0,-4.157022420E-1,-7.047824442E-2,1.704316098E0
1.075695304E1,-1.566854112E0,-4.668763424E-1,8.150784731E-2,1.636963304E0
1.076700604E1,-1.530174236E0,-5.173068233E-1,1.784114134E-1,1.625075437E0
1.077705904E1,-1.647317355E0,-4.788664967E-1,2.412163568E-1,1.732383595E0
1.078711304E1,-1.821405044E0,-3.913092662E-1,3.244345146E-1,1.891004239E0
1.079716604E1,-1.996275384E0,-3.161007705E-1,3.167132664E-1,2.045810939E0
1.080721904E1,-2.111376655E0,-3.442045355E-1,2.714797908E-1,2.156406598E0
1.081727204E1,-2.100304660E0,-3.905992681E-1,3.810092497E-1,2.170026613E0
1.082732604E1,-1.995748258E0,-4.053465307E-1,5.011449730E-1,2.097251344E0
1.083737904E1,-1.816303934E0,-3.804373920E-1,5.210500646E-1,1.927481714E0
1.084743204E1,-1.583127791E0,-4.075339741E-1,6.810176057E-1,1.770921376E0
1.085748504E1,-1.326539396E0,-5.722642185E-1,9.393475932E-1,1.723243165E0
1.086753804E1,-1.059226916E0,-8.709111965E-1,1.315428225E0,1.900210353E0
1.087759204E1,-7.199398890E-1,-1.027611313E0,1.568185816E0,2.008358835E0
1.088764504E1,-6.036031017E-1,-8.308862744E-1,1.647927219E0,1.941744789E0
1.089769804E1,-6.697813037E-1,-5.696320944E-1,1.675272893E0,1.891990217E0
1.090775104E1,-8.191349790E-1,-3.776318979E-1,1.470679986E0,1.725250007E0
1.091780504E1,-1.017823074E0,-3.902462424E-1,1.284881786E0,1.684985799E0
1.092785804E1,-1.251480443E0,-7.583739299E-1,1.544539091E0,2.127659588E0
1.093791104E1,-1.543444785E0,-1.512689454E0,2.331468483E0,3.179024453E0
1.094796404E1,-1.632962148E0,-2.389468477E0,3.084651255E0,4.229798854E0
1.095801704E1,-1.580300662E0,-2.828680034E0,3.365665516E0,4.671882413E0
1.096807104E1,-1.406460017E0,-2.643250793E0,3.321833033E0,4.472077731E0
1.097812404E1,-9.898038018E-1,-2.223815250E0,3.406788983E0,4.187036781E0
1.098817704E1,-2.101758277E-1,-2.043634907E0,3.676695288E0,4.211734293E0
1.099823004E1,3.454312813E-1,-1.757279215E0,3.277680708E0,3.735042681E0
1.100828404E1,3.897885516E-1,-1.199966327E0,2.735751990E0,3.012672112E0
1.101833704E1,1.653729996E-1,-5.693878269E-1,2.034745678E0,2.119372714E0
1.102839004E1,-9.068680644E-2,-6.562768668E-2,9.030165035E-1,9.099285113E-1
1.103844304E1,-2.841381356E-1,3.748002376E-1,-3.066098624E-1,5.614439473E-1
1.104849704E1,-4.052912745E-1,8.510999528E-1,-1.470313951E0,1.746555256E0
1.105855004E1,-4.494523707E-1,1.164260159E0,-2.384358303E0,2.691221594E0
1.106860304E1,-5.078455898E-1,1.370934381E0,-2.997766308E0,3.335261768E0
1.107865604E1,-5.156349581E-1,1.356240474E0,-3.367767005E0,3.667031802E0
1.108870904E1,-5.396851408E-1,1.274193952E0,-3.309193692E0,3.586863974E0
1.109876304E1,-5.838254794E-1,1.281779545E0,-3.089833058E0,3.395714846E0
1.110881604E1,-6.646234748E-1,1.141216135E0,-2.596035111E0,2.912644319E0
1.111886904E1,-8.099729767E-1,7.916543810E-1,-2.032266458E0,2.326559657E0
1.112892204E1,-1.030457153E0,5.046652892E-1,-1.461686384E0,1.858240050E0
1.113897604E1,-1.312974733E0,3.166316977E-1,-8.267851835E-1,1.583582022E0
1.114902904E1,-1.630634371E0,7.063085675E-2,-3.556691712E-1,1.670466321E0
1.115908204E1,-2.025048071E0,-1.969032329E-1,2.458438432E-1,2.049397415E0
1.116913504E1,-2.294067938E0,-5.192013212E-1,8.571907049E-1,2.503416390E0
1.117918804E1,-2.478719792E0,-7.925107057E-1,1.279140404E0,2.899711227E0
1.118924204E1,-2.614436883E0,-9.657685295E-1,1.413843881E0,3.125210967E0
1.119929896E1,-2.561510226E0,-1.103463588E0,1.436444539E0,3.137250299E0
1.120935196E1,-2.261784291E0,-1.209878527E0,1.590019319E0,3.017885959E0
1.121940496E1,-1.619452448E0,-1.062546088E0,1.384793744E0,2.381025858E0
1.122945896E1,-1.116415316E0,-4.473916657E-1,1.645061499E-1,1.213921223E0
1.123951196E1,-1.043391779E0,-1.187509127E0,7.512169379E-1,1.750191766E0
1.124956496E1,-1.914994701E0,-2.185209593E0,2.723465821E0,3.982412805E0
1.125961796E1,-2.720527595E0,-1.998949462E0,3.654853014E0,4.975441679E0
1.126967096E1,-2.576229422E0,-9.181457354E-1,1.880487943E0,3.319063803E0
1.127972496E1,-2.271049204E0,8.661012769E-2,-2.967432708E-1,2.291990918E0
1.128977796E1,-2.134664068E0,8.544530386E-1,-1.075722789E0,2.538515353E0
1.129983096E1,-1.806843431E0,1.319856760E0,-8.600523323E-1,2.397163963E0
1.130988396E1,-1.281190146E0,1.411282654E0,-4.517933035E-1,1.958898698E0
1.131993796E1,-8.455945069E-1,1.308866772E0,-5.365627277E-1,1.648047893E0
1.132999096E1,-6.023222691E-1,1.177666801E0,-7.370438719E-1,1.514240694E0
1.134004396E1,-4.026492101E-1,1.094694957E0,-7.497124493E-1,1.386561283E0
1.135009696E1,-3.342765480E-1,1.005569503E0,-7.399721575E-1,1.292466491E0
1.136014996E1,-2.440177578E-1,9.075513116E-1,-6.735121197E-1,1.156206134E0
1.137020396E1,3.141007304E-1,7.600370242E-1,4.267239511E-1,9.265035766E-1
1.138025696E1,6.647360337E-1,7.107945514E-1,1.156317301E0,1.511347938E0
1.139030996E1,6.273369500E-1,9.138622114E-1,9.326080924E-1,1.448604033E0
1.140036296E1,4.812501141E-1,1.186166167E0,6.685361391E-1,1.444137257E0
1.141041696E1,3.158472937E-1,1.333957466E0,9.553987849E-1,1.670924556E0
1.142046996E1,3.261576891E-3,1.330071992E0,1.670346029E0,2.135218489E0
1.143052296E1,-3.593450233E-1,1.189313723E0,2.504030342E0,2.795311062E0
1.144057596E1,-6.105019391E-1,1.031100932E0,3.068624037E0,3.294288274E0
1.145062896E1,-7.250760832E-1,1.066201183E0,3.099631237E0,3.357116932E0
1.146068296E1,-7.270892796E-1,1.289663346E0,2.901432846E0,3.257330644E0
1.147073596E1,-6.010376358E-1,1.496453344E0,2.900621837E0,3.318768731E0
1.148078896E1,-4.193035421E-1,1.596266484E0,2.937435322E0,3.369333527E0
1.149084196E1,-3.342552057E-1,1.728938053E0,2.706442822E0,3.228898586E0
1.150089596E1,-3.209153679E-1,1.981323177E0,2.345058582E0,3.086734189E0
1.151094896E1,-3.727214062E-1,2.419514102E0,1.824411390E0,3.053104430E0
1.152100196E1,-5.909669763E-1,2.990873903E0,1.064338844E0,3.229146303E0
1.153105496E1,-9.085356903E-1,3.517504258E0,3.915102643E-1,3.653977776E0
1.154110896E1,-1.259489959E0,3.800491953E0,-6.955263019E-2,4.004359077E0
1.155116196E1,-1.571240986E0,3.610749513E0,-4.634906584E-1,3.964988509E0
1.156121496E1,-1.762542879E0,3.031777515E0,-8.779360414E-1,3.615107743E0
1.157126796E1,-1.826845002E0,2.295119852E0,-9.594228387E-1,3.086329532E0
1.158132096E1,-1.866826508E0,1.592552918E0,-5.826890731E-1,2.522061173E0
1.159137496E1,-1.876134983E0,1.147708445E0,1.257151365E-3,2.199345068E0
1.160142796E1,-1.830056292E0,1.064044145E0,6.600752181E-1,2.217429879E0
1.161148096E1,-1.756122636E0,1.134736982E0,1.259913590E0,2.441101592E0
1.162153396E1,-1.774115980E0,1.112166437E0,1.784167929E0,2.750937457E0
1.163158796E1,-1.875308479E0,9.691821340E-1,2.235775875E0,3.074864170E0
1.164164096E1,-2.079099732E0,8.096829548E-1,2.613046415E0,3.436022956E0
1.165169396E1,-2.357915147E0,7.295430636E-1,2.841970755E0,3.764145945E0
1.166174696E1,-2.641627606E0,7.406083345E-1,3.008769599E0,4.071779907E0
1.167179996E1,-2.900757200E0,7.624611336E-1,2.993774414E0,4.237738141E0
1.168185396E1,-3.239014532E0,8.471560058E-1,2.852480541E0,4.398355792E0
1.169190696E1,-3.640552479E0,9.467568925E-1,2.738835227E0,4.653083855E0
1.170195996E1,-3.939891914E0,9.755298713E-1,2.494387699E0,4.764071453E0
1.171201296E1,-4.184305820E0,9.500503367E-1,2.129558280E0,4.790201385E0
1.172206696E1,-4.320949695E0,9.348893836E-1,1.776883467E0,4.764655211E0
1.173211996E1,-4.382684306E0,9.371753526E-1,1.730160706E0,4.804131080E0
1.174217296E1,-4.324004865E0,9.156459045E-1,1.875295030E0,4.801266182E0
1.175222596E1,-4.206854730E0,8.929394120E-1,2.014708439E0,4.749107033E0
1.176227896E1,-4.063705536E0,8.922213739E-1,2.132429847E0,4.675149058E0
1.177233296E1,-3.851297533E0,8.753632665E-1,2.300439064E0,4.570642561E0
1.178238596E1,-3.606058000E0,8.376703602E-1,2.433631035E0,4.430339258E0
1.179243896E1,-3.453808783E0,7.904695889E-1,2.498967823E0,4.335721101E0
1.180249196E1,-3.398615745E0,7.456322622E-1,2.562970861E0,4.321501601E0
1.181254596E1,-3.426065499E0,6.921770167E-1,2.646552131E0,4.384207113E0
1.182259896E1,-3.547071581E0,6.915633515E-1,2.692137024E0,4.506393061E0
1.183265196E1,-3.678516111E0,7.309402558E-1,2.711870792E0,4.628174330E0
1.184270496E1,-3.826727241E0,7.620331174E-1,2.708633773E0,4.749866605E0
1.185275796E1,-3.973070769E0,7.689068118E-1,2.682792588E0,4.855294543E0
1.186281196E1,-4.025396040E0,7.941729230E-1,2.590681400E0,4.852437947E0
1.187286496E1,-4.005338629E0,8.499851811E-1,2.495212741E0,4.794924292E0
1.188291796E1,-3.887631254E0,9.273531997E-1,2.328860625E0,4.625716435E0
1.189297096E1,-3.743523116E0,1.017851726E0,2.108917024E0,4.415599446E0
1.190302496E1,-3.581387720E0,1.071857487E0,1.937533379E0,4.210611840E0
1.191307796E1,-3.396416607E0,1.058517649E0,1.852997258E0,4.011197355E0
1.192313096E1,-3.182373724E0,9.898111108E-1,1.709093773E0,3.745427890E0
1.193318396E1,-3.036138953E0,9.544801873E-1,1.489855345E0,3.514091792E0
1.194323696E1,-2.956659213E0,9.358269846E-1,1.358487121E0,3.385718993E0
1.195329096E1,-2.909344713E0,8.314769894E-1,1.294844272E0,3.291240242E0
1.196334396E1,-2.867420177E0,7.127855283E-1,1.277220179E0,3.218921103E0
1.197339696E1,-2.800115801E0,5.946501374E-1,1.263956355E0,3.129192061E0
1.198344996E1,-2.709569913E0,4.566833299E-1,1.223301249E0,3.007789009E0
1.199350396E1,-2.628926868E0,3.270619610E-1,1.194218368E0,2.905922146E0
1.200355696E1,-2.580341477E0,2.106374654E-1,1.126871307E0,2.823538422E0
1.201360996E1,-2.546424410E0,6.910444111E-2,1.161164643E0,2.799527822E0
1.202366296E1,-2.500040787E0,-1.005259162E-1,1.329549251E0,2.833374420E0
1.203371596E1,-2.418835533E0,-2.411061367E-1,1.463254607E0,2.837254227E0
1.204376996E1,-2.226468278E0,-3.792911915E-1,1.602735844E0,2.769437666E0
1.205382296E1,-2.026585596E0,-5.344454509E-1,1.736515460E0,2.721794823E0
1.206387596E1,-1.882310520E0,-6.160968474E-1,1.839831668E0,2.703266317E0
1.207392896E1,-1.804744281E0,-6.326340888E-1,1.933912198E0,2.719805912E0
1.208398296E1,-1.709986935E0,-6.306543678E-1,2.006667933E0,2.710811030E0
1.209403596E1,-1.640308297E0,-5.083936201E-1,1.910492345E0,2.568862858E0
1.210408896E1,-1.629973636E0,-3.344138114E-1,1.694736519E0,2.375032320E0
1.211414196E1,-1.690117219E0,-2.408298558E-1,1.460281883E0,2.246534756E0
1.212419496E1,-1.805975119E0,-2.600391287E-1,1.151031418E0,2.157322369E0
1.213424896E1,-1.886388368E0,-3.356335406E-1,8.384954023E-1,2.091455352E0
1.214430196E1,-1.914102416E0,-4.323590590E-1,5.877182633E-1,2.048447015E0
1.215435496E1,-1.935348566E0,-4.695919356E-1,3.793153113E-1,2.027306283E0
1.216440796E1,-1.818267136E0,-6.263857542E-1,2.941131932E-1,1.945496611E0
1.217446196E1,-1.688133551E0,-8.141635300E-1,4.881951445E-1,1.936747696E0
1.218451496E1,-1.544522719E0,-9.901860635E-1,7.200746673E-1,1.970920190E0
1.219456796E1,-1.354718883E0,-1.271204271E0,9.670780134E-1,2.094388558E0
1.220462083E1,-1.114661444E0,-1.590042854E0,1.276370578E0,2.323753056E0
1.221467383E1,-8.362129417E-1,-1.891582303E0,1.497492394E0,2.553393656E0
1.222472783E1,-6.196042997E-1,-2.167995975E0,1.478129924E0,2.696105359E0
1.223478083E1,-4.647103876E-1,-2.430355279E0,1.430281574E0,2.858021677E0
1.224483383E1,-2.068142635E-1,-2.618468246E0,1.267148350E0,2.916301260E0
1.225488683E1,-8.842159510E-3,-2.594968286E0,9.398855370E-1,2.759949893E0
1.226494083E1,4.420173436E-2,-2.396282676E0,6.757820088E-1,2.490141719E0
1.227499383E1,1.872857326E-1,-2.151629764E0,4.794728529E-1,2.212347352E0
1.228504683E1,3.959708127E-1,-1.710429423E0,6.964560091E-2,1.757046444E0
1.229509983E1,6.024570474E-1,-1.272494167E0,-4.882577097E-1,1.490164920E0
1.230515383E1,7.654265490E-1,-1.096008022E0,-1.003776308E0,1.671729124E0
1.231520683E1,8.807187313E-1,-1.130137781E0,-1.286815460E0,1.925816948E0
1.232525983E1,1.160007479E0,-1.340944304E0,-1.275922097E0,2.184428112E0
1.233531283E1,1.584127957E0,-1.714503324E0,-1.039214528E0,2.555180986E0
1.234536583E1,1.838190646E0,-1.996646098E0,-8.639693820E-1,2.848154417E0
1.235541983E1,2.084681776E0,-2.291960601E0,-4.643250561E-1,3.132822891E0
1.236547283E1,2.339979398E0,-2.511630553E0,-5.512287140E-2,3.433195326E0
1.237552583E1,2.583653339E0,-2.473074013E0,6.399836004E-2,3.577073586E0
1.238557883E1,2.685911493E0,-2.359372273E0,2.392095923E-1,3.583012602E0
1.239563283E1,2.695792118E0,-2.296397468E0,3.275119042E-1,3.556402751E0
1.240568583E1,2.547581866E0,-2.270707726E0,2.518834323E-1,3.421948598E0
1.241573883E1,2.139964862E0,-2.214593313E0,2.427413106E-2,3.079685436E0
1.242579183E1,1.558499026E0,-2.251755731E0,-2.404953951E-1,2.749029123E0
1.243584483E1,1.083886963E0,-2.417967806E0,-3.849350703E-1,2.677602336E0
1.244589883E1,7.385799354E-1,-2.598894984E0,-6.741401106E-1,2.784640075E0
1.245595183E1,4.570522892E-1,-2.719419255E0,-9.048238778E-1,2.902213660E0
1.246600483E1,5.623840320E-1,-2.777658985E0,-9.086935651E-1,2.976136628E0
1.247605783E1,9.849210843E-1,-2.735902264E0,-9.445609707E-1,3.057356074E0
1.248611183E1,1.228743545E0,-2.684643525E0,-1.220868223E0,3.194939870E0
1.249616483E1,1.258348290E0,-2.868890167E0,-1.071254931E0,3.310824420E0
1.250621783E1,1.152059066E0,-3.128318554E0,-6.783618003E-1,3.402027601E0
1.251627083E1,1.072957056E0,-3.158495449E0,-5.373959559E-1,3.378775630E0
1.252632383E1,1.070823699E0,-3.025572450E0,-3.984532481E-1,3.234117659E0
1.253637783E1,1.203978833E0,-2.903599531E0,-2.829263002E-1,3.156026388E0
1.254643083E1,1.318477548E0,-2.869486291E0,-4.242973566E-1,3.186277273E0
1.255648383E1,1.304200401E0,-2.869828060E0,-7.009104180E-1,3.229261091E0
1.256653683E1,1.341012425E0,-2.784473915E0,-9.450755256E-1,3.231838030E0
1.257659083E1,1.455261464E0,-2.540800265E0,-1.241255125E0,3.180277692E0
1.258664383E1,1.531217964E0,-2.197604959E0,-1.526218010E0,3.082764575E0
1.259669683E1,1.555208798E0,-1.834013103E0,-1.590720985E0,2.883170428E0
1.260674983E1,1.600915313E0,-1.606057355E0,-1.382596945E0,2.655922510E0
1.261680283E1,1.679554809E0,-1.500499032E0,-1.234222094E0,2.568210637E0
1.262685683E1,1.673851142E0,-1.382615510E0,-9.449053717E-1,2.367751984E0
1.263690983E1,1.605033215E0,-1.315898049E0,-5.873042804E-1,2.156999215E0
1.264696283E1,1.423364317E0,-1.085447001E0,-3.324235654E-1,1.820622585E0
1.265701583E1,1.197732545E0,-7.534043082E-1,-1.837972838E-1,1.426871663E0
1.266706983E1,9.408324936E-1,-4.586114493E-1,-2.091151428E-1,1.067342206E0
1.267712283E1,5.831995350E-1,-2.300242013E-1,-3.262489057E-1,7.067327495E-1
1.268717583E1,2.713470590E-1,-4.084850237E-2,-4.769591349E-1,5.502616132E-1
1.269722883E1,-4.640438050E-2,1.877232505E-1,-6.326751655E-1,6.615672682E-1
1.270728183E1,-2.643660682E-1,4.564349695E-1,-5.640159899E-1,7.722281633E-1
1.271733583E1,-1.515659693E-1,7.492192367E-1,-4.310608310E-1,8.775620477E-1
1.272738883E1,1.030893356E-2,9.381632397E-1,-4.157937509E-1,1.026226574E0
1.273744183E1,4.093167901E-2,1.003211321E0,-3.571707362E-1,1.065682547E0
1.274749483E1,-8.455775499E-2,1.027163417E0,-2.059547228E-1,1.051014770E0
1.275754883E1,-2.444519135E-1,1.049791410E0,-1.010398865E-3,1.077877435E0
1.276760183E1,-3.301937297E-1,1.125731393E0,1.044815576E-1,1.177801114E0
1.277765483E1,-3.949981284E-1,1.264109552E0,2.750272965E-1,1.352640564E0
1.278770783E1,-4.347378525E-1,1.384528573E0,5.158846343E-1,1.540147177E0
1.279776083E1,-4.488685262E-1,1.478146296E0,7.406124276E-1,1.713156792E0
1.280781483E1,-4.164875230E-1,1.649802421E0,8.660223395E-1,1.909268074E0
1.281786783E1,-3.147608811E-1,1.845160235E0,9.034661543E-1,2.078446968E0
1.282792083E1,-3.089797390E-1,1.889333318E0,7.960007626E-1,2.073322474E0
1.283797383E1,-4.268341711E-1,1.813759518E0,7.419988024E-1,2.005610436E0
1.284802783E1,-4.707029065E-1,1.804553077E0,8.294871819E-1,2.041083540E0
1.285808083E1,-3.541602972E-1,1.883754782E0,9.816609693E-1,2.153513374E0
1.286813383E1,-2.056372190E-1,1.948457439E0,1.195040486E0,2.294971639E0
1.287818683E1,-3.800660938E-2,1.968698746E0,1.451191217E0,2.446052984E0
1.288823983E1,5.083656996E-2,2.031180923E0,1.631663189E0,2.605878942E0
1.289829383E1,8.235189289E-2,2.134116769E0,1.631605886E0,2.687633529E0
1.290834683E1,6.891206771E-2,2.296501841E0,1.491475609E0,2.739191317E0
1.291839983E1,-4.954813600E-2,2.351966190E0,1.532816593E0,2.807797479E0
1.292845283E1,-1.266565382E-1,2.161007529E0,1.838544695E0,2.840113029E0
1.293850683E1,-2.483408967E-1,1.783842239E0,2.280819901E0,2.906184054E0
1.294855983E1,-1.174486354E-1,1.456894298E0,2.770644080E0,3.132539512E0
1.295861283E1,1.466601554E-1,1.462809927E0,3.149948866E0,3.476132901E0
1.296866583E1,3.472114661E-1,1.817809007E0,3.203420484E0,3.699579461E0
1.297871883E1,5.851805717E-1,2.199102724E0,3.768509438E0,4.402289458E0
1.298877283E1,6.786641014E-1,2.364565186E0,4.080988736E0,4.765104672E0
1.299882583E1,6.730414188E-1,2.408780661E0,4.079215860E0,4.784894048E0
1.300887883E1,7.330353132E-1,2.629003175E0,3.816253123E0,4.691778593E0
1.301893183E1,8.432705310E-1,3.015581020E0,3.245891150E0,4.510060248E0
1.302898583E1,8.326996422E-1,3.358931277E0,2.476013408E0,4.255167496E0
1.303903883E1,6.961212561E-1,3.607821520E0,1.623295239E0,4.016970047E0
1.304909183E1,4.565777877E-1,3.768277888E0,7.806611770E-1,3.875282363E0
1.305914483E1,3.787150946E-1,3.780271989E0,9.917403996E-2,3.800489038E0
1.306919783E1,5.569844207E-1,3.723714504E0,-6.225062728E-1,3.816254107E0
1.307925183E1,7.763497326E-1,3.673601819E0,-1.256353805E0,3.959355265E0
1.308930483E1,9.917937554E-1,3.649567424E0,-1.625044141E0,4.116280565E0
1.309935783E1,1.153300868E0,3.563986991E0,-1.773306726E0,4.144481018E0
1.310941083E1,1.256308343E0,3.234424176E0,-1.750303779E0,3.886305922E0
1.311946483E1,1.367114541E0,2.753779833E0,-1.637216874E0,3.483214698E0
1.312951783E1,1.452117269E0,2.322392435E0,-1.309096275E0,3.035767488E0
1.313957083E1,1.549541238E0,1.906223585E0,-7.484699160E-1,2.568068072E0
1.314962383E1,1.527921012E0,1.481130423E0,-2.604513574E-1,2.143857471E0
1.315967683E1,1.274299202E0,1.057614254E0,2.484294820E-1,1.674545782E0
1.316973083E1,9.353336258E-1,7.050484926E-1,7.799279362E-1,1.407206436E0
1.317978383E1,6.456285024E-1,3.039660439E-1,1.402958704E0,1.574015452E0
1.318983683E1,4.555431229E-1,-2.644230786E-1,1.976050158E0,2.045046045E0
1.319988979E1,2.618541044E-1,-6.575179383E-1,2.345325800E0,2.449785811E0
1.320994379E1,4.610997319E-2,-7.261008078E-1,2.596178952E0,2.696199856E0
1.321999679E1,-2.163557500E-1,-7.059650436E-1,2.586589519E0,2.689914830E0
1.323004979E1,-5.156639019E-1,-6.971874958E-1,2.390148216E0,2.542594769E0
1.324010279E1,-7.882336137E-1,-6.159540291E-1,1.884329563E0,2.133403267E0
1.325015579E1,-1.085515998E0,-4.655482936E-1,1.232835719E0,1.707326596E0
1.326020979E1,-1.355280508E0,-3.482603104E-1,6.989562786E-1,1.564164434E0
1.327026279E1,-1.488541768E0,-2.239708713E-1,2.787584049E-1,1.530890524E0
1.328031579E1,-1.444088019E0,-1.369026142E-1,-8.021912098E-2,1.452779281E0
1.329036879E1,-1.222868848E0,-1.333931154E-1,-3.070829022E-1,1.267872963E0
1.330042279E1,-1.010734787E0,-2.139377801E-1,-4.379839343E-1,1.122133731E0
1.331047579E1,-8.999253729E-1,-3.197966494E-1,-4.130274332E-1,1.040541798E0
1.332052879E1,-8.485935438E-1,-4.564779465E-1,-3.118834662E-1,1.012795347E0
1.333058179E1,-8.702039757E-1,-5.236067596E-1,-2.523324984E-1,1.046465808E0
1.334063479E1,-9.170673627E-1,-6.005809683E-1,-1.752843225E-1,1.110150729E0
1.335068879E1,-9.222532582E-1,-8.137241118E-1,-1.271716779E-1,1.236475086E0
1.336074179E1,-9.934299526E-1,-1.071640116E0,-1.754205626E-1,1.471763562E0
1.337079479E1,-1.069948371E0,-1.305308302E0,-2.166346622E-1,1.701631528E0
1.338084779E1,-1.103674818E0,-1.516879714E0,-2.386178541E-1,1.891021061E0
1.339090179E1,-1.014581963E0,-1.743880905E0,-2.676720840E-1,2.035226158E0
1.340095479E1,-7.972763327E-1,-1.947072819E0,-2.807756943E-1,2.122634472E0
1.341100779E1,-6.153159517E-1,-2.046410581E0,-4.446304643E-1,2.182683265E0
1.342106079E1,-5.141655529E-1,-2.023199766E0,-5.501013708E-1,2.158776280E0
1.343111379E1,-4.507674095E-1,-1.959958620E0,-5.374713850E-1,2.081707121E0
1.344116779E1,-4.505124709E-1,-1.888247198E0,-5.838474065E-1,2.027144978E0
1.345122079E1,-5.015472615E-1,-1.805231207E0,-7.679838288E-1,2.024897165E0
1.346127379E1,-5.460834566E-1,-1.810918940E0,-9.218679267E-1,2.104156606E0
1.347132679E1,-5.356710273E-1,-1.937913886E0,-1.000449827E0,2.245741200E0
1.348138079E1,-4.816319373E-1,-2.055623454E0,-1.080636789E0,2.371778441E0
1.349143379E1,-3.710108033E-1,-2.189507443E0,-1.019524614E0,2.443567535E0
1.350148679E1,-1.907931849E-1,-2.321816484E0,-8.304724377E-1,2.473240444E0
1.351153979E1,1.052849650E-2,-2.384806784E0,-6.771163434E-1,2.479092735E0
1.352159279E1,2.180248377E-1,-2.453962389E0,-4.876583701E-1,2.511429259E0
1.353164679E1,4.306214127E-1,-2.523603019E0,-1.429626685E-1,2.564068120E0
1.354169979E1,5.940122062E-1,-2.524097401E0,1.590647310E-1,2.597926054E0
1.355175279E1,6.596407700E-1,-2.399989372E0,4.026784462E-1,2.521353776E0
1.356180579E1,6.235654959E-1,-2.163861847E0,6.503764415E-1,2.343954252E0
1.357185979E1,5.846002355E-1,-2.022960907E0,1.002785205E0,2.332317824E0
1.358191279E1,4.795596841E-1,-2.183585529E0,1.708688561E0,2.813830103E0
1.359196579E1,3.534141925E-1,-2.519657611E0,2.405829279E0,3.501655406E0
1.360201879E1,4.898007900E-1,-2.744175781E0,2.774485701E0,3.932960264E0
1.361207179E1,8.634212056E-1,-2.712903410E0,2.846583039E0,4.025962753E0
1.362212579E1,1.276253634E0,-2.610592339E0,2.996232584E0,4.173898105E0
1.363217879E1,1.520482476E0,-2.335529959E0,3.000770608E0,4.095264508E0
1.364223179E1,1.706068423E0,-1.899666810E0,2.763836167E0,3.762737542E0
1.365228479E1,1.860467661E0,-1.356245883E0,2.215850319E0,3.195424142E0
1.366233879E1,1.866273361E0,-8.354311690E-1,1.548958417E0,2.565188818E0
1.367239179E1,1.793832499E0,-5.250985305E-1,9.370706874E-1,2.090852691E0
1.368244479E1,1.697807477E0,-2.378723341E-1,1.617170280E-1,1.722000544E0
1.369249779E1,1.552278466E0,1.743721569E-1,-6.956251198E-1,1.709932277E0
1.370255079E1,1.413274654E0,6.288377841E-1,-1.450947973E0,2.120856484E0
1.371260479E1,1.252450789E0,9.301500691E-1,-2.113048081E0,2.626553697E0
1.372265779E1,9.260954636E-1,9.752818032E-1,-2.660617023E0,2.981226316E0
1.373271079E1,4.949592036E-1,8.898873116E-1,-2.977264801E0,3.146583820E0
1.374276379E1,5.947992414E-2,7.858766010E-1,-3.017961422E0,3.119171530E0
1.375281779E1,-4.589646211E-1,7.254273547E-1,-2.818494185E0,2.946320220E0
1.376287079E1,-1.004163102E0,7.387654383E-1,-2.416295795E0,2.718934217E0
1.377292379E1,-1.409143304E0,7.778567062E-1,-1.943061336E0,2.523139565E0
1.378297679E1,-1.580861118E0,7.262953739E-1,-1.518875661E0,2.309461002E0
1.379302979E1,-1.545471430E0,3.902170064E-1,-9.820199883E-1,1.872195104E0
1.380308379E1,-1.446868955E0,-2.375136074E-1,-4.485767502E-1,1.533317836E0
1.381313679E1,-1.358770126E0,-1.088580377E0,2.876719004E-1,1.764658215E0
1.382318979E1,-1.053644579E0,-1.959303440E0,1.010881260E0,2.443546151E0
1.383324279E1,-5.921372965E-1,-2.543886133E0,1.376560280E0,2.952439913E0
1.384329679E1,3.766717851E-2,-2.826003471E0,1.584054574E0,3.239898661E0
1.385334979E1,8.377773643E-1,-2.808393997E0,1.612488999E0,3.345006506E0
1.386340279E1,1.476169645E0,-2.376113144E0,1.219926821E0,3.051755551E0
1.387345579E1,1.599954031E0,-1.787795687E0,5.590715843E-1,2.463458414E0
1.388350879E1,1.341549491E0,-1.299120487E0,-1.202555913E-1,1.871344566E0
1.389356279E1,7.689661610E-1,-9.941133459E-1,-8.958302754E-1,1.543399554E0
1.390361579E1,1.711994576E-1,-9.636671863E-1,-1.633214455E0,1.904036018E0
1.391366879E1,-3.274899772E-1,-1.055585124E0,-2.225748485E0,2.485048482E0
1.392372179E1,-7.421710029E-1,-9.622726254E-1,-2.585002000E0,2.856400137E0
1.393377579E1,-9.552090427E-1,-6.982516891E-1,-2.630509125E0,2.884364400E0
1.394382879E1,-9.771925271E-1,-4.716196038E-1,-2.396620499E0,2.630802178E0
1.395388179E1,-8.789087257E-1,-3.725183617E-1,-1.793260934E0,2.031510584E0
1.396393479E1,-6.937657052E-1,-2.882003425E-1,-1.081924345E0,1.317167636E0
1.397398779E1,-4.162799469E-1,-1.433592559E-1,-5.814933175E-1,7.293664022E-1
1.398404179E1,-1.701083672E-1,1.724621639E-2,-3.145176369E-1,3.579883133E-1
1.399409479E1,6.009943664E-2,2.936457083E-1,7.103606880E-2,3.080354969E-1
1.400414779E1,2.420893461E-1,6.368471539E-1,3.328568441E-1,7.582712098E-1
1.401420079E1,2.563088974E-1,9.642967853E-1,3.946420330E-1,1.072988758E0
1.402425479E1,6.343644261E-2,1.188707367E0,4.777777451E-1,1.282700651E0
1.403430779E1,-1.737462124E-1,1.338258971E0,4.983055651E-1,1.438552486E0
1.404436079E1,-4.168550205E-1,1.601874549E0,4.397866309E-1,1.712653631E0
1.405441379E1,-6.337358505E-1,1.899662132E0,2.861621493E-1,2.022925140E0
1.406446679E1,-8.259928858E-1,2.191165421E0,1.646716261E-1,2.347463928E0
1.407452079E1,-9.247605443E-1,2.396661137E0,1.258040142E-1,2.571962931E0
1.408457379E1,-8.641676027E-1,2.522352300E0,1.118508035E-1,2.668624622E0
1.409462679E1,-7.595802104E-1,2.567710906E0,2.186051738E-1,2.686613038E0
1.410467979E1,-5.828378847E-1,2.565005984E0,4.090624362E-1,2.662008222E0
1.411473379E1,-3.279755884E-1,2.615443774E0,6.440035611E-1,2.713458072E0
1.412478679E1,4.192541331E-2,2.747892856E0,8.379235446E-1,2.873114818E0
1.413483979E1,4.843403676E-1,3.002544945E0,8.912986833E-1,3.169270434E0
1.414489279E1,8.969815922E-1,3.024129065E0,1.026806737E0,3.317267648E0
1.415494579E1,1.150254031E0,2.582791752E0,1.248299850E0,3.090655284E0
1.416499979E1,1.171957141E0,2.094446627E0,1.534560233E0,2.848695372E0
1.417505279E1,1.079050731E0,1.954102341E0,1.812019971E0,2.875114401E0
1.418510579E1,1.016806682E0,2.153980053E0,2.529105542E0,3.474176268E0
1.419515879E1,9.757427099E-1,2.263440222E0,3.782543340E0,4.514739150E0
1.420520892E1,1.076990757E0,2.160669267E0,4.933513362E0,5.492536288E0
1.421526192E1,1.349355817E0,1.838260521E0,5.559310448E0,6.008818147E0
1.422531492E1,1.465309027E0,1.428852514E0,6.153072978E0,6.484524433E0
1.423536792E1,1.830905308E0,9.665406543E-1,6.770734248E0,7.080201787E0
1.424542092E1,2.483946618E0,6.552082881E-1,6.851290169E0,7.317066740E0
1.425547492E1,2.989967877E0,9.417472905E-1,6.110344450E0,6.867539964E0
1.426552792E1,3.126493638E0,1.870056218E0,4.959251636E0,6.153555843E0
1.427558092E1,2.775044695E0,2.941576905E0,3.483164145E0,5.337244626E0
1.428563392E1,2.048039176E0,3.799658141E0,1.803271367E0,4.677996802E0
1.429568792E1,1.387187740E0,4.163701694E0,7.204997599E-2,4.389292975E0
1.430574092E1,7.598048897E-1,4.149882385E0,-1.583083352E0,4.506104767E0
1.431579392E1,4.258100313E-1,4.026483915E0,-2.682965081E0,4.857179071E0
1.432584692E1,4.449450445E-1,3.760344678E0,-3.203696473E0,4.960024121E0
1.433589992E1,5.318976729E-1,3.267558593E0,-3.314068515E0,4.684325396E0
1.434595392E1,6.268696113E-1,2.684952842E0,-3.204653662E0,4.227498358E0
1.435600692E1,7.323777938E-1,2.132863418E0,-2.785389588E0,3.583835760E0
1.436605992E1,8.438378571E-1,1.592407614E0,-2.076712899E0,2.749647396E0
1.437611292E1,8.222035977E-1,1.072696416E0,-1.450225257E0,1.982384840E0
1.438616692E1,7.004537505E-1,6.471210042E-1,-7.052139688E-1,1.186055560E0
1.439621992E1,6.709793982E-1,2.144818635E-1,7.587990224E-2,7.085009401E-1
1.440627292E1,7.376655771E-1,-1.906331174E-1,9.536159688E-1,1.220604320E0
1.441632592E1,9.418434772E-1,-5.828867090E-1,1.873588228E0,2.176501528E0
1.442637892E1,9.416195288E-1,-9.368818223E-1,2.553173851E0,2.878036066E0
1.443643292E1,7.652783221E-1,-1.166736893E0,3.114677292E0,3.412937228E0
1.444648592E1,4.972542357E-1,-1.170184557E0,3.291678357E0,3.528702322E0
1.445653892E1,8.361109078E-2,-1.040454869E0,2.989229958E0,3.166233234E0
1.446659192E1,-4.985224968E-1,-9.830185466E-1,2.354864947E0,2.600045973E0
1.447664592E1,-1.142898526E0,-9.741889586E-1,1.681519473E0,2.254499702E0
1.448669892E1,-1.678250295E0,-1.035651527E0,9.268614489E-1,2.179029666E0
1.449675192E1,-2.038491696E0,-1.124525112E0,2.078147221E-1,2.337347232E0
1.450680492E1,-2.221906865E0,-1.131170765E0,-3.669274002E-1,2.520129586E0
1.451685792E1,-2.195708707E0,-1.166990516E0,-7.663197112E-1,2.601970309E0
1.452691192E1,-1.864849857E0,-1.212640532E0,-9.277075410E-1,2.410145915E0
1.453696492E1,-1.388532746E0,-1.235025794E0,-9.994610631E-1,2.110031828E0
1.454701792E1,-9.920055708E-1,-1.270794089E0,-1.077871056E0,1.939277876E0
1.455707092E1,-6.770637184E-1,-1.196229518E0,-1.099703389E0,1.760320392E0
1.456712492E1,-3.787203571E-1,-1.152956979E0,-1.193203876E0,1.701903168E0
1.457717792E1,-1.448627213E-1,-1.428868009E0,-1.289992837E0,1.930474168E0
1.458723092E1,7.696017534E-2,-2.054680736E0,-1.046394909E0,2.307071326E0
1.459728392E1,1.763686886E-1,-2.480077223E0,-9.939559096E-1,2.677655186E0
1.460733692E1,1.390710542E-1,-2.400443993E0,-1.109213886E0,2.647985568E0
1.461739092E1,7.183304429E-2,-2.102197696E0,-1.148955656E0,2.396767456E0
1.462744392E1,-4.924466550E-2,-1.874664701E0,-1.209435162E0,2.231485198E0
1.463749692E1,-1.551345250E-1,-1.827835081E0,-1.371757377E0,2.290582045E0
1.464754992E1,-2.357152963E-1,-1.822352878E0,-1.607050504E0,2.441135604E0
1.465760392E1,-3.230048704E-1,-1.849068222E0,-1.726233716E0,2.550150638E0
1.466765692E1,-2.426030239E-1,-1.855804945E0,-1.642730799E0,2.490267596E0
1.467770992E1,-3.719472349E-2,-1.806519641E0,-1.543715218E0,2.376542307E0
1.468776292E1,6.507220119E-2,-1.749551973E0,-1.526914414E0,2.323065674E0
1.469781592E1,9.356100529E-2,-1.800920786E0,-1.293713420E0,2.219406171E0
1.470786992E1,1.785844910E-1,-2.112150680E0,-6.236780548E-1,2.209535524E0
1.471792292E1,2.175079438E-1,-2.357365801E0,-2.543655753E-1,2.381005055E0
1.472797592E1,2.077202895E-1,-2.347442199E0,-3.714560688E-2,2.356907379E0
1.473802892E1,1.599271953E-1,-2.225529215E0,2.525985467E-1,2.245520657E0
1.474808192E1,1.799275964E-2,-2.110667095E0,3.383783698E-1,2.137694844E0
1.475813592E1,-1.409842631E-1,-2.146336865E0,1.992345178E-1,2.160169644E0
1.476818892E1,-2.192024669E-1,-2.275726245E0,-5.107250512E-2,2.286829261E0
1.477824192E1,-2.359465536E-1,-2.332491454E0,-2.574833107E-1,2.358492063E0
1.478829492E1,-9.384898067E-2,-2.204928743E0,-3.368955159E-1,2.232491205E0
1.479834892E1,2.168647501E-1,-1.922130935E0,-2.305720854E-1,1.948019800E0
1.480840192E1,6.466966425E-1,-1.698502126E0,3.559211862E-1,1.851973518E0
1.481845492E1,1.015151774E0,-1.761536719E0,1.457531353E0,2.501587972E0
1.482850792E1,1.116401868E0,-2.114157152E0,2.677859293E0,3.589838992E0
1.483856192E1,1.142064420E0,-2.565444818E0,3.525823091E0,4.507465665E0
1.484861492E1,1.203699628E0,-2.750029721E0,3.868963434E0,4.896982164E0
1.485866792E1,1.278158949E0,-2.753210022E0,4.391345494E0,5.338330354E0
1.486872092E1,1.303955111E0,-2.739935381E0,4.982484963E0,5.833755328E0
1.487877392E1,1.280942809E0,-2.519385715E0,4.884554626E0,5.643313987E0
1.488882792E1,1.200071723E0,-2.090456779E0,4.401325521E0,5.018151854E0
1.489888092E1,1.079499944E0,-1.490476027E0,3.751385867E0,4.178484754E0
1.490893392E1,1.134604981E0,-8.091692770E-1,2.696655752E0,3.035463000E0
1.491898692E1,1.274914914E0,-1.578207359E-1,1.343721732E0,1.859006056E0
1.492903992E1,1.435767139E0,4.530767673E-1,8.641775429E-2,1.508036426E0
1.493909392E1,1.505209403E0,1.037565175E0,-9.931519175E-1,2.080516179E0
1.494914692E1,1.452822882E0,1.481770839E0,-1.949531280E0,2.847281398E0
1.495919992E1,1.292039655E0,1.780430535E0,-2.695654124E0,3.479346277E0
1.496925292E1,1.041906148E0,1.983656362E0,-3.093889856E0,3.820028197E0
1.497930692E1,6.927807418E-1,2.128493209E0,-3.254850254E0,3.950250457E0
1.498935992E1,3.444830091E-1,2.201304346E0,-3.344057715E0,4.018349334E0
1.499941292E1,-1.824155867E-2,2.179653569E0,-3.263050974E0,3.924120805E0
1.500946592E1,-3.909591642E-1,2.022615629E0,-2.904145369E0,3.560601547E0
1.501951892E1,-5.742318065E-1,1.658883293E0,-2.335932248E0,2.922022487E0
1.502957292E1,-6.871010488E-1,1.153325719E0,-1.795156601E0,2.241618899E0
1.503962592E1,-7.423804794E-1,6.360282513E-1,-1.108587649E0,1.478048473E0
1.504967892E1,-6.678550847E-1,2.273412064E-1,-2.439323884E-1,7.464699916E-1
1.505973192E1,-5.337168878E-1,-1.124758708E-1,4.400696361E-1,7.008322356E-1
1.506978592E1,-4.398053420E-1,-3.824752928E-1,9.148448360E-1,1.084738292E0
1.507983892E1,-3.794790334E-1,-6.014986888E-1,1.272935339E0,1.458139015E0
1.508989192E1,-2.892638049E-1,-8.683964552E-1,1.533218297E0,1.785649545E0
1.509994492E1,-2.845524108E-1,-1.046363919E0,1.487204803E0,1.840550366E0
1.510999792E1,-4.203475624E-1,-9.783343421E-1,1.094340323E0,1.526895838E0
1.512005192E1,-6.203793481E-1,-7.917578767E-1,5.530325800E-1,1.147865892E0
1.513010492E1,-7.861531743E-1,-6.240761040E-1,1.337258220E-2,1.003835954E0
1.514015792E1,-9.083930182E-1,-3.468504006E-1,-4.908445179E-1,1.089225145E0
1.515021092E1,-9.641108438E-1,-8.196524575E-2,-8.905192494E-1,1.315010477E0
1.516026492E1,-1.023033528E0,8.107500717E-2,-1.295285736E0,1.652554355E0
1.517031792E1,-9.697621778E-1,2.472476135E-1,-1.510859129E0,1.812254224E0
1.518037092E1,-7.633686215E-1,4.320802930E-1,-1.561884272E0,1.791342376E0
1.519042392E1,-4.917818266E-1,5.283842272E-1,-1.423967750E0,1.596472176E0
1.520047692E1,-1.615147144E-1,5.470312902E-1,-1.239913189E0,1.364813156E0
1.521053158E1,6.978534937E-2,5.252295081E-1,-1.066777133E0,1.191112708E0
1.522058458E1,2.082608646E-1,4.491566478E-1,-7.919223297E-1,9.339460681E-1
1.523063758E1,3.642131227E-1,4.004910028E-1,-4.357912284E-1,6.949519673E-1
1.524069058E1,5.458788040E-1,5.052469410E-1,-1.322394598E-1,7.554769452E-1
1.525074458E1,6.237979227E-1,7.287136361E-1,5.778218508E-2,9.609818899E-1
1.526079758E1,6.147493565E-1,9.260464932E-1,6.346684813E-2,1.113331451E0
1.527085058E1,5.248539707E-1,9.488567738E-1,1.756620526E-2,1.084485795E0
1.528090358E1,3.446334288E-1,9.786739191E-1,3.003714681E-3,1.037585593E0
1.529095658E1,1.903914812E-1,1.139173849E0,-6.867730200E-2,1.157014497E0
1.530101058E1,1.228599411E-1,1.332937712E0,-1.721870524E-1,1.349616942E0
1.531106358E1,5.247759104E-2,1.576191239E0,-3.039031863E-1,1.606079035E0
1.532111658E1,-5.733750433E-2,1.848587581E0,-4.032362705E-1,1.892924489E0
1.533116958E1,-1.142543015E-1,2.116236568E0,-4.423886418E-1,2.164998607E0
1.534122358E1,-1.518068746E-1,2.378342395E0,-4.220882785E-1,2.420271966E0
1.535127658E1,-8.260741621E-2,2.611934275E0,-3.274639571E-1,2.633677521E0
1.536132958E1,-1.376112968E-2,2.872749329E0,-2.251031846E-1,2.881588021E0
1.537138258E1,6.253275543E-2,3.061698302E0,-7.753349483E-2,3.063318182E0
1.538143558E1,1.201018095E-1,3.081582344E0,1.603201282E-1,3.088086257E0
1.539148958E1,1.347838756E-1,2.936104203E0,5.518274689E-1,2.990549806E0
1.540154258E1,8.129793227E-2,2.789098185E0,8.505851054E-1,2.917048690E0
1.541159558E1,-5.147479355E-2,2.691797593E0,1.115244119E0,2.914136816E0
1.542164858E1,-3.450363019E-1,2.471007315E0,1.662344114E0,2.998051893E0
1.543170158E1,-5.727894446E-1,1.928283376E0,2.687200804E0,3.356696693E0
1.544175558E1,-4.370007250E-1,1.337121687E0,3.466077411E0,3.740662596E0
1.545180858E1,-3.414899656E-1,8.893281716E-1,3.978002311E0,4.090479480E0
1.546186158E1,-3.332372054E-1,4.708584425E-1,4.656961112E0,4.692551705E0
1.547191458E1,-1.434003326E-1,5.031704485E-2,5.288772059E0,5.290955051E0
1.548196858E1,1.380302498E-1,-3.622762325E-1,5.738560937E0,5.751641335E0
1.549202158E1,5.588502672E-1,-5.751517197E-1,5.884198122E0,5.938594165E0
1.550207458E1,8.509195662E-1,-4.835919240E-1,5.592816748E0,5.677809827E0
1.551212758E1,9.261665073E-1,-1.519872612E-1,4.851809049E0,4.941754301E0
1.552218058E1,7.509543979E-1,2.799690709E-1,3.682162435E0,3.768373042E0
1.553223458E1,3.618929476E-1,6.643600577E-1,2.399286829E0,2.515734104E0
1.554228758E1,-3.510241431E-1,1.050657237E0,1.203904865E0,1.635996792E0
1.555234058E1,-9.798819539E-1,1.505490800E0,2.515115494E-1,1.813816212E0
1.556239358E1,-1.332897366E0,1.884142745E0,-5.787965816E-1,2.379414793E0
1.557244758E1,-1.609656608E0,2.135141201E0,-1.208240576E0,2.934223515E0
1.558250058E1,-1.787531247E0,2.245445708E0,-1.598479071E0,3.285183363E0
1.559255358E1,-1.808326577E0,2.175004301E0,-1.778560449E0,3.341252159E0
1.560260658E1,-1.765525836E0,1.954971676E0,-1.767802742E0,3.172400079E0
1.561265958E1,-1.575057464E0,1.555645877E0,-1.371699489E0,2.604304053E0
1.562271358E1,-1.189559307E0,1.086854718E0,-7.668769509E-1,1.784490061E0
1.563276658E1,-8.824933612E-1,6.687090705E-1,-1.513364661E-1,1.117528111E0
1.564281958E1,-6.410448700E-1,3.002349356E-1,3.645955306E-1,7.962470991E-1
1.565287258E1,-4.590640238E-1,-7.240607142E-3,9.926128042E-1,1.093650942E0
1.566292658E1,-3.585264131E-1,-1.877612574E-1,1.517661195E0,1.570697610E0
1.567297958E1,-4.193134823E-1,-2.878400078E-1,1.765676109E0,1.837467765E0
1.568303258E1,-5.984362096E-1,-4.156170188E-1,1.822709851E0,1.962940295E0
1.569308558E1,-8.623292381E-1,-5.016989967E-1,1.727362813E0,1.994767126E0
1.570313858E1,-1.187730005E0,-5.101176716E-1,1.469184853E0,1.956892112E0
1.571319258E1,-1.462112354E0,-5.553888617E-1,1.118945407E0,1.923088179E0
1.572324558E1,-1.619783109E0,-6.669689392E-1,8.655212331E-1,1.953886355E0
1.573329858E1,-1.702855378E0,-7.305612101E-1,7.465374112E-1,1.997687220E0
1.574335158E1,-1.732610982E0,-7.006709746E-1,7.149823272E-1,2.001019829E0
1.575340558E1,-1.695250490E0,-5.973671924E-1,6.906918240E-1,1.925558875E0
1.576345858E1,-1.591217121E0,-4.982905085E-1,5.914306605E-1,1.769196310E0
1.577351158E1,-1.469500311E0,-4.962362355E-1,5.417825371E-1,1.642927230E0
1.578356458E1,-1.415022680E0,-5.392827062E-1,4.444375062E-1,1.578176073E0
1.579361758E1,-1.330617245E0,-5.982787733E-1,3.370171380E-1,1.497351092E0
1.580367158E1,-1.287879361E0,-6.663562971E-1,1.406769919E-1,1.456864434E0
1.581372458E1,-1.333346725E0,-6.781324433E-1,-9.800108850E-2,1.499093497E0
1.582377758E1,-1.404052134E0,-6.838630801E-1,-3.148526824E-1,1.593161422E0
1.583383058E1,-1.533506272E0,-7.602763215E-1,-5.904839963E-1,1.810616724E0
1.584388358E1,-1.637974089E0,-9.098994072E-1,-7.808933115E-1,2.029943450E0
1.585393758E1,-1.650147115E0,-1.047488777E0,-9.079591548E-1,2.155135278E0
1.586399058E1,-1.568924612E0,-1.170759119E0,-9.022201127E-1,2.155505158E0
1.587404358E1,-1.462989144E0,-1.201320469E0,-8.702030987E-1,2.083449432E0
1.588409658E1,-1.352047290E0,-1.184913913E0,-7.960656667E-1,1.966157013E0
1.589415058E1,-1.238678842E0,-1.256357752E0,-6.180021626E-1,1.869408127E0
1.590420358E1,-1.157060482E0,-1.408345013E0,-4.291546386E-1,1.872537941E0
1.591425658E1,-1.059487117E0,-1.532298968E0,-3.726395452E-1,1.899819284E0
1.592430958E1,-9.917585260E-1,-1.563514768E0,-3.830487585E-1,1.890737886E0
1.593436258E1,-1.004203155E0,-1.531061113E0,-3.853209865E-1,1.871107792E0
1.594441658E1,-1.029934997E0,-1.533412132E0,-3.769074279E-1,1.885252788E0
1.595446958E1,-1.093264436E0,-1.561529930E0,-3.875569618E-1,1.945200053E0
1.596452258E1,-1.095169751E0,-1.588792281E0,-2.859148121E-1,1.950744723E0
1.597457558E1,-9.225274926E-1,-1.627005443E0,-6.388024628E-2,1.871439118E0
1.598462958E1,-6.291840854E-1,-1.660158425E0,1.438590467E-1,1.781205781E0
1.599468258E1,-3.979269987E-1,-1.587785975E0,2.372355723E-1,1.653992417E0
1.600473558E1,-2.297891432E-1,-1.543610407E0,3.103380471E-1,1.591177502E0
1.601478858E1,-1.237791234E-1,-1.549446951E0,4.979254961E-1,1.632187773E0
1.602484158E1,1.695166290E-2,-1.672862670E0,8.618790025E-1,1.881911870E0
1.603489558E1,2.000496197E-1,-1.681130926E0,1.048777065E0,1.991520618E0
1.604494858E1,3.361856639E-1,-1.451170751E0,1.251346250E0,1.945452335E0
1.605500158E1,3.324107015E-1,-1.399300978E0,1.770868437E0,2.281340642E0
1.606505458E1,2.318073097E-1,-1.653369515E0,2.122757968E0,2.700641919E0
1.607510858E1,6.823993027E-2,-1.840793973E0,2.200018398E0,2.869365799E0
1.608516158E1,5.905600101E-2,-1.828982159E0,2.328464184E0,2.961487600E0
1.609521458E1,2.048019442E-1,-1.656691611E0,2.623982463E0,3.109960594E0
1.610526758E1,4.986259925E-1,-1.475131326E0,2.819880559E0,3.221236824E0
1.611532058E1,6.850583240E-1,-1.298806491E0,2.654620703E0,3.033679991E0
1.612537458E1,8.796849436E-1,-9.987048720E-1,2.527847806E0,2.856793928E0
1.613542758E1,1.249076360E0,-6.699707535E-1,2.177047026E0,2.597804134E0
1.614548058E1,1.559364706E0,-2.162424602E-1,1.510967887E0,2.182063941E0
1.615553358E1,1.606932098E0,3.964708959E-1,5.929012352E-1,1.758110296E0
1.616558758E1,1.253402131E0,9.415778674E-1,-3.469030255E-1,1.605592567E0
1.617564058E1,9.476301742E-1,1.253673149E0,-1.102303061E0,1.919575826E0
1.618569358E1,6.375634378E-1,1.529135040E0,-1.957936068E0,2.564810861E0
1.619574658E1,2.764271200E-1,1.768339224E0,-2.599431759E0,3.156022977E0
1.620579842E1,6.076382652E-2,1.899039258E0,-2.964623120E0,3.521226007E0
1.621585242E1,-8.200237557E-2,1.966852926E0,-3.169384426E0,3.730982775E0
1.622590542E1,-2.602162993E-1,1.910288862E0,-3.039249964E0,3.599160514E0
1.623595842E1,-3.931059694E-1,1.765361383E0,-2.709241884E0,3.257456784E0
1.624601142E1,-3.049553928E-1,1.195813635E0,-2.144860443E0,2.474549325E0
1.625606542E1,-7.508590883E-1,8.126122637E-1,-1.328804315E0,1.729117975E0
1.626611842E1,-8.003127918E-1,6.005461773E-1,-8.822606421E-1,1.333994047E0
1.627617142E1,-9.658805037E-1,4.576085056E-1,-1.946198952E-1,1.086373598E0
1.628622442E1,-1.085883203E0,7.292881250E-2,7.624131864E-1,1.328809546E0
1.629627742E1,-1.039578810E0,-4.943950935E-1,1.637540225E0,2.001671452E0
1.630633142E1,-9.429985946E-1,-8.263551208E-1,2.357953447E0,2.670590495E0
1.631638442E1,-7.836517355E-1,-7.682696114E-1,2.896100185E0,3.097054168E0
1.632643742E1,-6.716079739E-1,-4.393612459E-1,3.000647231E0,3.106119666E0
1.633649042E1,-8.177307701E-1,-4.873478830E-2,2.498215871E0,2.629095135E0
1.634654442E1,-1.219927990E0,3.253247532E-1,1.788260395E0,2.189049049E0
1.635659742E1,-1.400712204E0,6.797486137E-1,1.016775838E0,1.859539180E0
1.636665042E1,-1.437664853E0,9.457923943E-1,2.095998770E-1,1.733590376E0
1.637670342E1,-1.401184074E0,1.182105276E0,-3.351039290E-1,1.863594467E0
1.638675642E1,-1.231076877E0,1.424995106E0,-6.142804098E-1,1.980783115E0
1.639681042E1,-1.015436533E0,1.572953343E0,-7.581195760E-1,2.019910608E0
1.640686342E1,-8.038506496E-1,1.577669415E0,-8.191247463E-1,1.950943874E0
1.641691642E1,-5.979096678E-1,1.516554463E0,-7.494528329E-1,1.794188663E0
1.642696942E1,-3.460882160E-1,1.394359058E0,-5.743304783E-1,1.547213539E0
1.643702242E1,-1.869422087E-1,1.258533647E0,-4.632105768E-1,1.354037802E0
1.644707642E1,-1.449612468E-1,1.125524986E0,-2.614488924E-1,1.164549604E0
1.645712942E1,-8.007206351E-2,9.453328031E-1,6.032046139E-2,9.506335793E-1
1.646718242E1,-2.445802599E-2,6.786328188E-1,4.351626527E-1,8.065402855E-1
