"Time (s)","Linear Acceleration x (m/s^2)","Linear Acceleration y (m/s^2)","Linear Acceleration z (m/s^2)","Absolute acceleration (m/s^2)"
-7.487499970E-4,3.765029468E-1,4.357371417E-1,1.009010736E0,1.161776222E0
9.304250008E-3,1.654248936E-1,3.851207194E-1,1.684513248E0,1.735876794E0
1.935724996E-2,-9.153362945E-2,1.123472321E-1,2.128317500E0,2.133245342E0
2.941024996E-2,-2.978336303E-1,-2.937819484E-1,2.255445324E0,2.293915063E0
3.946324997E-2,-4.730619657E-1,-7.761672994E-1,2.090551504E0,2.279611566E0
4.951624997E-2,-5.297499906E-1,-1.115651378E0,1.771431524E0,2.159463519E0
5.956924998E-2,-3.817495072E-1,-1.138262561E0,1.443561185E0,1.877563112E0
6.962224998E-2,-1.495729458E-1,-9.118802977E-1,1.212372803E0,1.524383665E0
7.967524999E-2,1.245347299E-1,-5.661794597E-1,1.066729771E0,1.214075979E0
8.972824999E-2,2.563656154E-1,-4.159726757E-1,1.016892782E0,1.128196582E0
9.978125000E-2,2.829162137E-1,-4.064646645E-1,9.216597658E-1,1.046284775E0
1.098342500E-1,3.914775199E-1,-3.477584732E-1,7.389231670E-1,9.056478625E-1
1.198882500E-1,5.385357244E-1,-2.352912270E-1,5.099315840E-1,7.780828416E-1
1.299412500E-1,5.461604936E-1,-1.565454581E-1,2.053202999E-1,6.041143855E-1
1.399942500E-1,4.745170453E-1,-1.148192887E-1,-3.065016890E-1,5.764487668E-1
1.500472500E-1,4.976948234E-1,-6.112036049E-2,-7.573676240E-1,9.083179805E-1
1.601002500E-1,5.147371182E-1,5.564517394E-2,-1.067574109E0,1.186492800E0
1.701532500E-1,5.631190270E-1,1.943379132E-1,-1.346795028E0,1.472659876E0
1.802062500E-1,6.626200725E-1,3.258802387E-1,-1.483022289E0,1.656688987E0
1.902592500E-1,6.795147251E-1,4.550288603E-1,-1.361254608E0,1.588019406E0
2.003122500E-1,5.188836712E-1,4.921235964E-1,-9.597836119E-1,1.196917073E0
2.103652500E-1,3.158519715E-1,4.882480618E-1,-5.267084152E-1,7.845829417E-1
2.204182500E-1,2.944306970E-1,4.969990048E-1,-9.772509992E-2,5.858734003E-1
2.304712500E-1,2.851323085E-1,4.585781202E-1,3.791697156E-1,6.598211871E-1
2.405252500E-1,2.379897170E-1,3.670250487E-1,8.143183351E-1,9.243705115E-1
2.505782500E-1,1.755984642E-1,2.515247056E-1,1.111726434E0,1.153271504E0
2.606312500E-1,1.190883408E-1,9.608700246E-2,1.297894179E0,1.306883333E0
2.706842500E-1,1.056379907E-1,-6.553383887E-2,1.406541293E0,1.412024249E0
2.807372500E-1,1.086987157E-1,-2.056997842E-1,1.499188086E0,1.517133063E0
2.907902500E-1,1.105176383E-1,-3.833300096E-1,1.600473556E0,1.649445861E0
3.008432500E-1,1.381341840E-1,-5.236783880E-1,1.638040162E0,1.725252353E0
3.108962500E-1,2.080605975E-1,-6.321673349E-1,1.698734261E0,1.824451381E0
3.209492500E-1,2.392823902E-1,-7.407042289E-1,1.688028009E0,1.858853780E0
3.310022500E-1,2.474798942E-1,-8.410921508E-1,1.513025522E0,1.748693379E0
3.410552500E-1,2.963403976E-1,-8.920909810E-1,1.337265821E0,1.634602039E0
3.511092500E-1,3.652350698E-1,-8.393713152E-1,9.860183144E-1,1.345426690E0
3.611622500E-1,3.533744314E-1,-8.038257989E-1,3.451570469E-1,9.434737892E-1
3.712152500E-1,3.783065204E-1,-9.143305734E-1,-4.044372886E-1,1.068964799E0
3.812682500E-1,4.479459818E-1,-9.603323731E-1,-1.065017121E0,1.502383220E0
3.913212500E-1,5.991773441E-1,-8.884081122E-1,-1.697926176E0,2.007793755E0
4.013742500E-1,7.733156124E-1,-7.890320510E-1,-2.228176249E0,2.487038000E0
4.114272500E-1,8.156405367E-1,-6.611727405E-1,-2.475142758E0,2.688633584E0
4.214802500E-1,8.156626099E-1,-5.087796825E-1,-2.456347468E0,2.637765179E0
4.315332500E-1,8.528270741E-1,-3.599972802E-1,-2.273334880E0,2.454580115E0
4.415862500E-1,8.745431945E-1,-2.592313358E-1,-2.074691516E0,2.266356453E0
4.516402500E-1,8.560576607E-1,-1.710638022E-1,-1.857380331E0,2.052305834E0
4.616932500E-1,8.064392120E-1,-1.478909943E-1,-1.488801677E0,1.699631249E0
4.717462500E-1,6.993666069E-1,-2.272947210E-1,-1.262436664E0,1.461000640E0
4.817992500E-1,5.966316126E-1,-3.541211209E-1,-1.417267426E0,1.577979089E0
4.918522500E-1,6.480413559E-1,-4.359800935E-1,-1.384165168E0,1.589323584E0
5.019052500E-1,7.573818035E-1,-3.278162518E-1,-1.387960011E0,1.614782860E0
5.119582500E-1,6.193731885E-1,-2.205622369E-1,-2.288296736E0,2.380876477E0
5.220112500E-1,1.196297930E0,1.627458456E-1,-1.497943799E0,1.923915428E0
5.320642500E-1,1.005774448E0,1.587141904E-1,-1.174557105E0,1.554463518E0
5.421172500E-1,8.117438060E-1,1.091549447E-1,-1.348851494E0,1.578050431E0
5.521660833E-1,1.351522941E0,1.473764393E-1,-1.625958645E0,2.119451719E0
5.622200833E-1,1.665090405E0,2.282358304E-1,-2.107873296E0,2.695876014E0
5.722730833E-1,1.608023773E0,7.454615235E-3,-2.347003950E0,2.845034898E0
5.823260833E-1,1.684783681E0,-3.522155133E-1,-2.839688587E0,3.320599809E0
5.923790833E-1,1.874467649E0,-5.635572758E-1,-3.172054265E0,3.727352148E0
6.024320833E-1,2.124371507E0,-7.887154242E-1,-3.143398815E0,3.875046120E0
6.124850833E-1,2.457000894E0,-1.093858220E0,-3.257373328E0,4.224199356E0
6.225380833E-1,2.579043102E0,-1.460455838E0,-3.530284517E0,4.609479726E0
6.325910833E-1,2.516041692E0,-1.648487383E0,-3.814718814E0,4.857988892E0
6.426440833E-1,2.620882854E0,-1.786079383E0,-3.756035573E0,4.915985122E0
6.526970833E-1,2.775610705E0,-1.827598123E0,-3.457239345E0,4.795480536E0
6.627500833E-1,2.831021844E0,-1.576367240E0,-2.647579486E0,4.184411009E0
6.728030833E-1,3.216746873E0,-1.310977617E0,-1.209301845E0,3.678115511E0
6.828570833E-1,3.406845994E0,-1.011889320E0,-2.970870870E-1,3.566339911E0
6.929100833E-1,3.032032746E0,-1.046046707E0,3.203274304E-1,3.223359420E0
7.029630833E-1,2.704178195E0,-1.539136556E0,1.130139316E0,3.310398152E0
7.130160833E-1,2.579254187E0,-1.839810910E0,1.912184529E0,3.700527803E0
7.230690833E-1,2.489912240E0,-1.845474231E0,2.750499837E0,4.143752822E0
7.331220833E-1,2.313097116E0,-1.767318592E0,3.437652342E0,4.504585097E0
7.431750833E-1,2.254802715E0,-1.520291565E0,4.184770966E0,4.990764447E0
7.532280833E-1,2.074949378E0,-1.117962197E0,5.198393401E0,5.707762114E0
7.632810833E-1,8.138903189E-1,-7.261163029E-1,4.683086472E0,4.808426066E0
7.733340833E-1,1.643886209E-1,-2.996926063E-1,5.398302687E0,5.409113715E0
7.833880833E-1,1.161714866E0,1.810026070E-1,7.883207957E0,7.970402189E0
7.934410833E-1,9.998235905E-1,7.981390893E-2,7.601382687E0,7.667270455E0
8.034940833E-1,4.395620978E-1,-3.191948247E-1,6.806228601E0,6.827872871E0
8.135470833E-1,1.109860003E-2,-1.036559015E0,6.072528752E0,6.160372003E0
8.236000833E-1,2.957059747E-1,-2.099148957E0,5.682300782E0,6.064850414E0
8.336530833E-1,5.017156613E-1,-2.646673460E0,5.472291015E0,6.099390787E0
8.437060833E-1,1.264570312E0,-9.796106431E-1,4.381638531E0,4.664496897E0
8.537590833E-1,1.948261850E0,-2.287451228E-1,2.788524281E0,3.409386489E0
8.638120833E-1,2.006732837E0,-1.016274732E0,1.542622374E0,2.727540063E0
8.738650833E-1,1.645162071E0,-1.240534748E0,8.509017321E-1,2.229241678E0
8.839180833E-1,1.267716699E0,-6.584532005E-1,1.039094953E0,1.766461029E0
8.939710833E-1,1.451552575E0,3.452093795E-1,1.874289894E0,2.395649599E0
9.040250833E-1,1.734933203E0,1.527045684E0,3.120853706E0,3.883502233E0
9.140780833E-1,1.363743768E0,1.999573068E0,4.680851081E0,5.269578385E0
9.241310833E-1,6.604511940E-1,1.761394778E0,5.697880104E0,6.000378740E0
9.341840833E-1,1.039903915E-1,1.279779944E0,5.878450894E0,6.017045422E0
9.442370833E-1,-4.158294189E-1,9.787348764E-1,5.856851864E0,5.952608657E0
9.542900833E-1,-1.196825057E0,1.154476451E0,6.011510718E0,6.237264401E0
9.643430833E-1,-1.675534848E0,1.784856292E0,5.876469272E0,6.366005036E0
9.743960833E-1,-1.715038637E0,2.414895679E0,6.067454538E0,6.751820735E0
9.844490833E-1,-1.929170691E0,2.915607081E0,6.811534950E0,7.656335453E0
9.945020833E-1,-1.981248332E0,3.172989820E0,7.236203604E0,8.145910137E0
1.004555083E0,-1.888581659E0,3.316072356E0,7.018890080E0,7.989236166E0
1.014609083E0,-1.650254411E0,3.548347443E0,6.529982745E0,7.612803941E0
1.024662083E0,-1.408481984E0,3.583014708E0,6.205128400E0,7.302426608E0
1.034715083E0,-1.205163771E0,3.319959000E0,5.975415856E0,6.941191694E0
1.044768083E0,-8.563177156E-1,2.993256351E0,5.829405034E0,6.608693264E0
1.054821083E0,-4.108949536E-1,2.516530227E0,5.668859788E0,6.215925542E0
1.064874083E0,-5.032230735E-2,1.816885585E0,5.404981962E0,5.702406121E0
1.074927083E0,3.350214833E-1,1.101761317E0,5.158259282E0,5.285239466E0
1.084980083E0,7.932256740E-1,3.563880864E-1,4.721745630E0,4.801156239E0
1.095033083E0,1.263717788E0,-4.432728870E-1,4.080289409E0,4.294442357E0
1.105086083E0,1.702741942E0,-1.227783725E0,3.436542248E0,4.026984681E0
1.115140083E0,2.112829980E0,-2.067585687E0,2.789354585E0,4.064413870E0
1.125193083E0,2.362534740E0,-2.779134822E0,2.189550127E0,4.254326094E0
1.135246083E0,2.532063648E0,-3.312080462E0,1.421794632E0,4.404852243E0
1.145299083E0,2.539045808E0,-3.919693877E0,8.225803046E-1,4.742087310E0
1.155352083E0,2.029187315E0,-4.384012501E0,-9.795416459E-1,4.929165102E0
1.165405083E0,2.017840793E0,-4.928557262E0,-4.142785911E-1,5.341721156E0
1.175458083E0,2.407386977E0,-5.509229046E0,1.131855328E0,6.117860183E0
1.185511083E0,2.324743600E0,-5.866288685E0,1.216692726E0,6.426361096E0
1.195564083E0,2.004968732E0,-5.780031145E0,1.036551560E0,6.205086525E0
1.205617083E0,1.861207919E0,-5.555869946E0,9.550497061E-1,5.936657790E0
1.215671083E0,1.736382728E0,-5.444389272E0,1.046633475E0,5.809633478E0
1.225724083E0,1.772937182E0,-5.370223188E0,1.092263977E0,5.759830200E0
1.235777083E0,1.758259501E0,-5.297518909E0,1.003774408E0,5.671220867E0
1.245830083E0,1.523330070E0,-5.283799587E0,8.244642775E-1,5.560468858E0
1.255883083E0,1.023394886E0,-5.526697018E0,6.170057970E-1,5.654415370E0
1.265936083E0,3.013432753E-1,-6.083458368E0,3.728558922E-1,6.102318821E0
1.275989083E0,-4.756587142E-1,-6.586100228E0,2.127357388E-1,6.606680249E0
1.286042083E0,-9.194313920E-1,-6.647945643E0,2.769754426E-1,6.716937602E0
1.296095083E0,-7.336501479E-1,-6.187591431E0,4.183407980E-1,6.244961111E0
1.306148083E0,-1.458096778E-1,-5.295946008E0,6.508822256E-1,5.337785332E0
1.316202083E0,3.481981838E-1,-4.393154330E0,8.200467061E-1,4.482580010E0
1.326255083E0,4.150476462E-1,-3.857399395E0,1.008977845E0,4.008719363E0
1.336308083E0,1.484917957E-1,-3.662584788E0,1.307530391E0,3.891813570E0
1.346361083E0,-1.961606365E-1,-3.710231701E0,1.536581615E0,4.020619521E0
1.356414083E0,-2.850611186E-1,-3.778606995E0,1.600661105E0,4.113544291E0
1.366467083E0,-2.572985387E-1,-4.025986317E0,1.282161076E0,4.233049183E0
1.376520083E0,-3.608328474E-1,-4.564373668E0,1.075773075E0,4.703296188E0
1.386573083E0,-5.377988291E-1,-5.321945068E0,8.238656688E-1,5.412123569E0
1.396626083E0,-6.406940371E-1,-6.117782693E0,3.462012134E-1,6.160974696E0
1.406679083E0,-1.232604754E0,-6.859523633E0,-1.096803170E-1,6.970251697E0
1.416732083E0,-1.884633034E0,-7.196248410E0,-4.239057393E-1,7.451008585E0
1.426786083E0,-2.351563609E0,-6.857864778E0,-9.012640929E-1,7.305644235E0
1.436839083E0,-2.763359034E0,-6.101550238E0,-1.246797701E0,6.813191100E0
1.446892083E0,-3.022884192E0,-5.061434069E0,-1.320488405E0,6.041492638E0
1.456945083E0,-3.121015674E0,-3.818268659E0,-1.054947778E0,5.043097183E0
1.466998083E0,-3.076824172E0,-2.639460043E0,-5.235300149E-1,4.087502903E0
1.477051083E0,-2.764297512E0,-1.774507744E0,2.265898392E-2,3.284924946E0
1.487104083E0,-2.606394038E0,-1.484203427E0,4.803709853E-1,3.037582259E0
1.497157083E0,-2.691767480E0,-1.425764015E0,8.794497393E-1,3.170464798E0
1.507210083E0,-2.895697896E0,-1.284767765E0,1.147403659E0,3.369307002E0
1.517263083E0,-3.025537659E0,-1.042352436E0,1.251224043E0,3.435977056E0
1.527317083E0,-2.959409158E0,-5.287985024E-1,1.252904240E0,3.256915636E0
1.537370083E0,-2.933481435E0,1.502696416E-1,1.217648746E0,3.179711113E0
1.547423083E0,-2.916900485E0,5.959233686E-1,1.009352798E0,3.143600829E0
1.557476875E0,-2.937448186E0,8.372914606E-1,6.288709670E-1,3.118515276E0
1.567529875E0,-3.105719942E0,1.187816544E0,2.610384178E-1,3.335347892E0
1.577582875E0,-3.231545007E0,1.598950941E0,-7.870995462E-2,3.606344756E0
1.587635875E0,-3.292397565E0,1.938705453E0,-4.190120584E-1,3.843700257E0
1.597688875E0,-3.284250639E0,2.281783522E0,-7.033406670E-1,4.060483518E0
1.607741875E0,-3.279346579E0,2.579288685E0,-8.312466091E-1,4.254152681E0
1.617794875E0,-3.421935026E0,2.738396101E0,-7.702291596E-1,4.449910728E0
1.627848875E0,-3.557761753E0,2.947530540E0,-6.003138967E-1,4.658967884E0
1.637901875E0,-3.558862783E0,3.363548239E0,-2.116120501E-1,4.901401914E0
1.647954875E0,-3.450454236E0,4.011852427E0,4.897684841E-1,5.314176088E0
1.658007875E0,-3.306980520E0,4.889231229E0,1.347508243E0,6.054459566E0
1.668060875E0,-3.107761205E0,5.980233961E0,2.152272227E0,7.074860683E0
1.678113875E0,-2.984927577E0,7.095218464E0,2.637286340E0,8.136780502E0
1.688166875E0,-2.856587040E0,7.732527548E0,2.671590493E0,8.665417910E0
1.698219875E0,-2.703190600E0,7.622623283E0,2.221488204E0,8.387290085E0
1.708272875E0,-2.594831169E0,7.080806247E0,1.251166740E0,7.644369439E0
1.718325875E0,-2.429145051E0,6.587518762E0,2.110165112E-1,7.024291928E0
1.728379875E0,-2.176937099E0,6.348381675E0,-6.600489056E-1,6.743639195E0
1.738432875E0,-1.800670525E0,6.227402199E0,-1.161152948E0,6.585683614E0
1.748485875E0,-1.427424624E0,6.099908924E0,-1.276472320E0,6.393419392E0
1.758538875E0,-1.164644321E0,5.935067144E0,-1.077538641E0,6.143493137E0
1.768591875E0,-8.496056968E-1,5.764588648E0,-5.437653279E-1,5.852178471E0
1.778644875E0,-5.326871932E-1,5.624428550E0,4.578837633E-2,5.649783070E0
1.788697875E0,-2.874391812E-1,5.452613965E0,3.241193497E-1,5.469796494E0
1.798750875E0,-1.211841291E-1,5.217119109E0,3.765761831E-1,5.232095853E0
1.808803875E0,-1.853228223E-1,5.256579044E0,5.140336981E-1,5.284902879E0
1.818857875E0,3.927867115E-1,5.695330718E0,8.011433887E-1,5.764798705E0
1.828910875E0,1.026893860E0,5.970821698E0,6.127846920E-1,6.089394702E0
1.838963875E0,-1.480468225E-1,5.799542719E0,9.004048446E-1,5.870889412E0
1.849016875E0,-1.322681111E0,5.582352571E0,1.634300868E0,5.965155897E0
1.859069875E0,-2.316794311E0,5.271419862E0,2.162770464E0,6.150851918E0
1.869122875E0,-3.063388440E0,5.009868643E0,2.442223226E0,6.359841731E0
1.879175875E0,-3.567131916E0,4.877673038E0,2.478228918E0,6.531289531E0
1.889228875E0,-3.840762312E0,5.050653557E0,2.430315956E0,6.794629655E0
1.899281875E0,-4.098569559E0,5.420022755E0,2.572141634E0,7.265729948E0
1.909334875E0,-4.025723192E0,5.670966539E0,3.120228639E0,7.622475678E0
1.919388875E0,-3.784095776E0,5.700262259E0,3.285815354E0,7.590056206E0
1.929441875E0,-3.835455379E0,5.843412623E0,3.104338830E0,7.648078754E0
1.939494875E0,-4.104519686E0,5.952633934E0,2.844451729E0,7.769931675E0
1.949547875E0,-4.562387077E0,5.536688740E0,2.612768673E0,7.635237926E0
1.959600875E0,-4.970936712E0,4.768497335E0,2.373111476E0,7.285632211E0
1.969653875E0,-5.351157757E0,4.024771265E0,2.040511617E0,6.999811479E0
1.979706875E0,-5.445914226E0,3.581841756E0,1.526405706E0,6.694586357E0
1.989759875E0,-5.540416340E0,3.260352192E0,9.304662573E-1,6.495527468E0
1.999812875E0,-5.833608012E0,2.818359406E0,3.537980622E-1,6.488397741E0
2.009866875E0,-5.937211903E0,2.374198473E0,-1.295669898E-1,6.395630631E0
2.019919875E0,-5.756176844E0,2.066787835E0,-3.907311228E-1,6.128446346E0
2.029972875E0,-5.353375606E0,1.927752156E0,-4.695325863E-1,5.709231087E0
2.040025875E0,-4.869472318E0,1.881884550E0,-5.883281279E-1,5.253511216E0
2.050078875E0,-4.424971077E0,1.730784750E0,-5.655593625E-1,4.784960008E0
2.060131875E0,-3.875838590E0,1.409584038E0,-2.505432504E-1,4.131806367E0
2.070184875E0,-3.322702514E0,1.013327589E0,1.334001321E-1,3.476345839E0
2.080237875E0,-2.936686878E0,5.032030468E-1,2.551932487E-1,2.990395747E0
2.090290875E0,-2.755486928E0,-9.929134972E-2,2.607788014E-1,2.769579853E0
2.100343875E0,-2.749166672E0,-8.240717100E-1,2.964228433E-1,2.885286481E0
2.110397875E0,-2.855129914E0,-1.613885461E0,3.589865890E-1,3.299282419E0
2.120450875E0,-2.962877142E0,-2.388587302E0,3.066616103E-1,3.818118856E0
2.130503875E0,-3.089741841E0,-3.084395147E0,2.127597123E-1,4.370956962E0
2.140556875E0,-3.247827163E0,-3.688809550E0,8.009311348E-2,4.915497135E0
2.150609875E0,-3.446472867E0,-4.259413013E0,-1.551052889E-1,5.481316638E0
2.160662875E0,-3.589051373E0,-4.832368518E0,-3.751670042E-1,6.031071674E0
2.170715875E0,-3.627692698E0,-5.373097095E0,-5.697839758E-1,6.508070411E0
2.180768875E0,-3.676397080E0,-5.900153419E0,-7.118362328E-1,6.988162612E0
2.190821875E0,-3.646847591E0,-6.250106937E0,-7.631502280E-1,7.276381817E0
2.200875875E0,-3.252281572E0,-6.413724310E0,-7.422935021E-1,7.229397942E0
2.210928875E0,-2.789977899E0,-6.393376000E0,-6.852542058E-1,7.009194439E0
2.220981875E0,-2.381456915E0,-6.206691361E0,-5.807343489E-1,6.673200662E0
2.231034875E0,-1.989765971E0,-5.963707391E0,-4.818427294E-1,6.305326866E0
2.241087875E0,-1.635389035E0,-5.738056322E0,-3.266196191E-1,5.975488936E0
2.251140875E0,-1.361482065E0,-5.607314919E0,-1.669219270E-1,5.772649041E0
2.261193875E0,-1.044112156E0,-5.477927731E0,-5.278603166E-2,5.576795566E0
2.271246875E0,-7.380361444E-1,-5.376447549E0,-4.274168462E-2,5.427035328E0
2.281299875E0,-4.406432480E-1,-5.248519242E0,-1.297008911E-1,5.268580741E0
2.291352875E0,-2.020423508E-1,-5.183945516E0,-2.086005878E-1,5.192073423E0
2.301406875E0,-6.518943787E-2,-5.227421318E0,-3.720057070E-1,5.241046799E0
2.311459875E0,7.887893915E-2,-5.269071035E0,-5.989665520E-1,5.303592405E0
2.321512875E0,3.713835633E-1,-5.295824386E0,-7.192382231E-1,5.357330053E0
2.331565875E0,5.147245467E-1,-5.400094274E0,-7.795616081E-1,5.480298882E0
2.341618875E0,5.565917802E-1,-5.563056759E0,-8.028895135E-1,5.648187894E0
2.351671875E0,6.228413182E-1,-5.730936753E0,-7.230646411E-1,5.809852825E0
2.361724875E0,7.004017103E-1,-5.866223781E0,-6.173192078E-1,5.940052778E0
2.371777875E0,7.278052711E-1,-6.025700156E0,-5.833499546E-1,6.097463411E0
2.381830875E0,7.716243052E-1,-6.174127048E0,-6.276554771E-1,6.253734905E0
2.391884875E0,8.729694164E-1,-6.284495582E0,-6.988975140E-1,6.383213772E0
2.401937875E0,9.526184338E-1,-6.388856102E0,-7.738784069E-1,6.505678440E0
2.411990875E0,1.070641558E0,-6.489601289E0,-8.722924550E-1,6.634914646E0
2.422043875E0,1.173492327E0,-6.594733642E0,-9.689806974E-1,6.768051392E0
2.432096875E0,1.156319640E0,-6.742753567E0,-1.065572899E0,6.923672897E0
2.442149875E0,1.041478570E0,-7.004184918E0,-1.136815375E0,7.171863996E0
2.452202875E0,8.727361125E-1,-7.285165265E0,-1.222333243E0,7.438373465E0
2.462255875E0,7.030510837E-1,-7.607208853E0,-1.245996632E0,7.740569421E0
2.472308875E0,5.103847432E-1,-7.946933836E0,-1.238788769E0,8.059084787E0
2.482362875E0,3.352167803E-1,-8.253085862E0,-1.200052427E0,8.346611430E0
2.492415875E0,2.553017145E-1,-8.471184667E0,-1.171870602E0,8.555666504E0
2.502468875E0,2.327185982E-1,-8.586098827E0,-1.081169762E0,8.657030614E0
2.512521875E0,2.335576737E-1,-8.616745838E0,-9.104755041E-1,8.667861539E0
2.522574875E0,1.589822853E-1,-8.635719468E0,-6.955722025E-1,8.665145514E0
2.532627875E0,8.360933661E-3,-8.598196131E0,-4.748912671E-1,8.611304682E0
2.542680875E0,-1.678589433E-1,-8.443236730E0,-2.895079261E-1,8.449866150E0
2.552733333E0,-4.311742669E-1,-8.233587736E0,-1.703706148E-1,8.246629882E0
2.562786333E0,-9.109324640E-1,-8.131076691E0,-6.077186644E-2,8.182169597E0
2.572840333E0,-1.714455670E0,-8.237792469E0,8.512727380E-2,8.414738835E0
2.582893333E0,-2.696572137E0,-8.408265118E0,2.962383637E-1,8.835054089E0
2.592946333E0,-3.532310577E0,-8.410009342E0,5.848908421E-1,9.140436119E0
2.602999333E0,-4.153297743E0,-8.125171587E0,8.556464553E-1,9.165174648E0
2.613052333E0,-4.577679884E0,-7.655722032E0,1.127168931E0,8.990869966E0
2.623105333E0,-4.770240975E0,-6.997239595E0,1.405523293E0,8.584407763E0
2.633158333E0,-4.769544572E0,-6.174537522E0,1.732857442E0,7.992262755E0
2.643211333E0,-4.558119194E0,-5.213985586E0,2.061987855E0,7.225917948E0
2.653264333E0,-4.236986017E0,-4.154991682E0,2.371472648E0,6.390609431E0
2.663318333E0,-3.899078348E0,-3.121041986E0,2.584240108E0,5.623345266E0
2.673371333E0,-3.512577394E0,-2.132180171E0,2.694173024E0,4.913548668E0
2.683424333E0,-3.147517594E0,-1.155680685E0,2.639833095E0,4.267456341E0
2.693477333E0,-2.811075237E0,-2.525248718E-1,2.462876469E0,3.745887519E0
2.703530333E0,-2.519969852E0,5.239085856E-1,2.177158123E0,3.371163858E0
2.713583333E0,-2.303679006E0,1.210377002E0,1.872979241E0,3.206244015E0
2.723636333E0,-2.072307022E0,1.856554266E0,1.678102214E0,3.249196389E0
2.733689333E0,-1.868451449E0,2.407545437E0,1.563567100E0,3.425219398E0
2.743742333E0,-1.736136560E0,2.785663823E0,1.530789510E0,3.621796462E0
2.753796333E0,-1.679671168E0,2.989773749E0,1.592902581E0,3.781187768E0
2.763849333E0,-1.741308423E0,3.028789880E0,1.750983664E0,3.907898022E0
2.773902333E0,-1.947468383E0,2.869928925E0,1.998857076E0,4.003068166E0
2.783955333E0,-2.339078634E0,2.549664937E0,2.364712097E0,4.190935868E0
2.794008333E0,-2.848635997E0,2.212620901E0,2.854579691E0,4.599896032E0
2.804061333E0,-3.340485066E0,1.846878878E0,3.369128821E0,5.091250444E0
2.814114333E0,-3.738804413E0,1.518037463E0,3.833369678E0,5.565772118E0
2.824167333E0,-4.015568917E0,1.353345079E0,4.182748999E0,5.954135187E0
2.834220333E0,-3.942405047E0,1.287812702E0,4.460932038E0,6.091053583E0
2.844274333E0,-3.484673311E0,1.451271031E0,4.574834045E0,5.931124870E0
2.854327333E0,-3.387778516E0,1.588865956E0,4.922829330E0,6.183509271E0
2.864380333E0,-3.377982091E0,1.846848034E0,5.567404749E0,6.768870386E0
2.874433333E0,-3.250717442E0,2.244751644E0,6.048261638E0,7.224094592E0
2.884486333E0,-2.914486170E0,2.675495263E0,6.392784262E0,7.517991431E0
2.894539333E0,-2.352069978E0,3.097384737E0,6.537101730E0,7.606557988E0
2.904592333E0,-1.828120864E0,3.457344302E0,6.531338714E0,7.612728875E0
2.914645333E0,-1.453271656E0,3.787826884E0,6.457102464E0,7.625864098E0
2.924698333E0,-1.115211375E0,4.090943620E0,6.229791956E0,7.535902330E0
2.934752333E0,-7.509584910E-1,4.338328497E0,5.803477310E0,7.284598938E0
2.944805333E0,-4.476973289E-1,4.438204788E0,5.246500783E0,6.886498755E0
2.954858333E0,-2.217550689E-1,4.472373285E0,4.687908086E0,6.482883643E0
2.964911333E0,-2.757780790E-2,4.488676784E0,4.113599242E0,6.088569498E0
2.974964333E0,1.953888041E-1,4.482067384E0,3.563083888E0,5.729107401E0
2.985017333E0,4.065820473E-1,4.399233095E0,3.113734721E0,5.404988871E0
2.995070333E0,5.670343226E-1,4.392609077E0,2.725492465E0,5.200466480E0
3.005123333E0,7.087784314E-1,4.472340248E0,2.414840423E0,5.131827007E0
3.015176333E0,7.559379798E-1,4.504201434E0,2.181285088E0,5.061351343E0
3.025230333E0,7.197635955E-1,4.717486518E0,1.928419908E0,5.146993494E0
3.035283333E0,6.791108286E-1,4.901208958E0,1.753151958E0,5.249436403E0
3.045336333E0,5.354166734E-1,5.097386259E0,1.700346923E0,5.400110864E0
3.055389333E0,3.244555646E-1,5.333910810E0,1.744218582E0,5.621225347E0
3.065442333E0,1.398542887E-1,5.594376785E0,1.880905434E0,5.903762875E0
3.075495333E0,-3.320867658E-2,5.869283044E0,2.044917494E0,6.215406168E0
3.085548333E0,-2.068160176E-1,6.113098488E0,2.121027777E0,6.473909547E0
3.095601333E0,-2.708003443E-1,6.298899613E0,2.129067698E0,6.654502117E0
3.105654333E0,-2.817773223E-1,6.425864300E0,1.968910123E0,6.726643853E0
3.115708333E0,-2.959995049E-1,6.497591509E0,1.639256383E0,6.707717392E0
3.125761333E0,-2.760581607E-1,6.533149012E0,1.227268000E0,6.653151950E0
3.135814333E0,-3.461949277E-1,6.502660460E0,7.945161545E-1,6.560160052E0
3.145867333E0,-5.864628661E-1,6.362882770E0,4.281242862E-1,6.404178811E0
3.155920333E0,-9.469682693E-1,6.063119413E0,1.381510679E-1,6.138179831E0
3.165973333E0,-1.347739354E0,5.764748862E0,-3.646901093E-2,5.920309181E0
3.176026333E0,-1.958507926E0,5.538439397E0,3.901912786E-2,5.874656308E0
3.186079333E0,-2.604908845E0,5.347965177E0,3.018853122E-1,5.956292166E0
3.196132333E0,-3.120616894E0,5.258866475E0,5.192607435E-1,6.137064291E0
3.206186333E0,-3.570339113E0,5.211395270E0,6.795799215E-1,6.353565213E0
3.216239333E0,-4.063026674E0,5.092000973E0,9.023382264E-1,6.576539663E0
3.226292333E0,-4.553044980E0,4.956277158E0,1.233575392E0,6.842266445E0
3.236345333E0,-5.117100731E0,4.904348913E0,1.597677417E0,7.265667986E0
3.246398333E0,-5.621607853E0,4.940228305E0,1.931588514E0,7.729124449E0
3.256451333E0,-5.818670130E0,5.167461630E0,2.200529444E0,8.087144837E0
3.266504333E0,-5.727041922E0,5.469834015E0,2.386696020E0,8.271300456E0
3.276557333E0,-5.376140571E0,5.742814202E0,2.463266478E0,8.243208364E0
3.286611333E0,-4.844355018E0,6.054401799E0,2.497901291E0,8.146353021E0
3.296664333E0,-4.210744298E0,6.200413206E0,2.432511878E0,7.879886135E0
3.306717333E0,-3.643643317E0,6.049722272E0,2.218973317E0,7.402642688E0
3.316770333E0,-3.134779435E0,5.756159887E0,1.929975268E0,6.832643945E0
3.326823333E0,-2.713582857E0,5.403982673E0,1.626911011E0,6.262060370E0
3.336876333E0,-2.456056861E0,4.985982183E0,1.299051782E0,5.707869056E0
3.346929333E0,-2.375284009E0,4.487279592E0,9.940580897E-1,5.173567796E0
3.356982333E0,-2.376129516E0,3.901178083E0,6.932505655E-1,4.620149160E0
3.367035333E0,-2.359331051E0,3.240930665E0,2.748963189E-1,4.018164079E0
3.377089333E0,-2.323733202E0,2.574041102E0,-1.852497321E-1,3.472713787E0
3.387142333E0,-2.347237839E0,1.884890604E0,-5.942811781E-1,3.068470006E0
3.397195333E0,-2.480318128E0,1.189157018E0,-8.972466172E-1,2.893289464E0
3.407248333E0,-2.713956494E0,5.713530761E-1,-1.089205298E0,2.979659774E0
3.417301333E0,-2.961319444E0,3.854469940E-2,-1.138225723E0,3.172767930E0
3.427354333E0,-3.180866604E0,-4.339974488E-1,-9.866476209E-1,3.358532368E0
3.437407333E0,-3.382358732E0,-8.900501566E-1,-6.348164159E-1,3.554649315E0
3.447460333E0,-3.493174578E0,-1.296522569E0,-1.244971615E-1,3.728101252E0
3.457513333E0,-3.502916624E0,-1.603092962E0,4.525008166E-1,3.878799932E0
3.467567333E0,-3.399655965E0,-1.785541147E0,1.020635585E0,3.973350584E0
3.477620333E0,-3.270880396E0,-1.904460211E0,1.497536833E0,4.070410769E0
3.487673333E0,-3.127252899E0,-1.955892174E0,1.919060270E0,4.157886147E0
3.497726333E0,-2.857155975E0,-1.909925165E0,2.248426180E0,4.106893557E0
3.507779333E0,-2.425651340E0,-1.807316471E0,2.480328069E0,3.911803238E0
3.517832333E0,-1.977407881E0,-1.740795330E0,2.649030181E0,3.736023448E0
3.527885333E0,-1.568222653E0,-1.719750616E0,2.730274903E0,3.587654598E0
3.537938333E0,-1.142128447E0,-1.762933180E0,2.800244440E0,3.500537060E0
3.547991333E0,-7.628493887E-1,-1.836924432E0,2.790883632E0,3.427136123E0
3.558049000E0,-4.205948997E-1,-1.983796256E0,2.696444668E0,3.373894115E0
3.568102000E0,-1.324458665E-1,-2.199964603E0,2.569496938E0,3.385217966E0
3.578155000E0,5.971293569E-2,-2.480704045E0,2.426393205E0,3.470567991E0
3.588208000E0,2.126059306E-1,-2.812723567E0,2.259493790E0,3.614128849E0
3.598261000E0,3.519468337E-1,-3.156132882E0,2.088639026E0,3.800980705E0
3.608314000E0,5.188322157E-1,-3.488054464E0,1.967358125E0,4.038094699E0
3.618367000E0,6.871419793E-1,-3.830138506E0,1.889894943E0,4.325948217E0
3.628420000E0,8.604072583E-1,-4.161593480E0,1.836029223E0,4.629272541E0
3.638474000E0,9.992757064E-1,-4.504617171E0,1.805933604E0,4.954949442E0
3.648527000E0,1.148006653E0,-4.855334043E0,1.798271413E0,5.303392123E0
3.658580000E0,1.324099646E0,-5.193541381E0,1.786046201E0,5.649431209E0
3.668633000E0,1.482144622E0,-5.499301643E0,1.737105590E0,5.954545077E0
3.678686000E0,1.613198267E0,-5.805101666E0,1.676076885E0,6.253866622E0
3.688739000E0,1.719112977E0,-6.105057982E0,1.589963624E0,6.538735866E0
3.698792000E0,1.812454419E0,-6.396956250E0,1.486553861E0,6.812920275E0
3.708845000E0,1.871621225E0,-6.682419657E0,1.380467828E0,7.075548735E0
3.718898000E0,1.854018182E0,-6.978357182E0,1.299630802E0,7.336476852E0
3.728952000E0,1.776218054E0,-7.301225227E0,1.240092698E0,7.615817113E0
3.739005000E0,1.672449857E0,-7.607565533E0,1.150085338E0,7.873680089E0
3.749058000E0,1.520015869E0,-7.894107167E0,1.049099831E0,8.107279855E0
3.759111000E0,1.288034604E0,-8.162291467E0,9.756009150E-1,8.320687007E0
3.769164000E0,1.001646752E0,-8.411880451E0,8.859689462E-1,8.517509608E0
3.779217000E0,6.686144918E-1,-8.559657133E0,8.456933248E-1,8.627280728E0
3.789270000E0,3.739703715E-1,-8.611401483E0,8.593519820E-1,8.662250006E0
3.799323000E0,5.528425455E-2,-8.583920739E0,8.627262640E-1,8.627343056E0
3.809377000E0,-4.590520370E-1,-8.604262033E0,9.217118061E-1,8.665656729E0
3.819430000E0,-1.118131474E0,-8.789292494E0,1.137906027E0,8.932900462E0
3.829483000E0,-1.813450785E0,-9.029735264E0,1.493494214E0,9.330340168E0
3.839536000E0,-2.385911323E0,-9.113542821E0,1.870182810E0,9.604520776E0
3.849589000E0,-2.690964657E0,-8.955335877E0,2.169277246E0,9.599223678E0
3.859642000E0,-2.590018326E0,-8.533320104E0,2.335905935E0,9.218579254E0
3.869695000E0,-2.141789485E0,-7.932182481E0,2.361202452E0,8.548804485E0
3.879748000E0,-1.712086962E0,-7.286913582E0,2.322653221E0,7.837414708E0
3.889802000E0,-1.393564568E0,-6.582629321E0,2.140329289E0,7.060739369E0
3.899855000E0,-1.098638027E0,-5.856800408E0,1.875482288E0,6.247123366E0
3.909908000E0,-1.034037403E0,-5.228572050E0,1.533932827E0,5.546183278E0
3.919961000E0,-1.162110137E0,-4.643452874E0,1.083311159E0,4.907720208E0
3.930014000E0,-1.360618431E0,-3.982176054E0,5.753670435E-1,4.247358693E0
3.940067000E0,-1.471530172E0,-3.222875048E0,1.130240473E-1,3.544728347E0
3.950120000E0,-1.450010664E0,-2.379893808E0,-2.717920321E-1,2.800052923E0
3.960173000E0,-1.403506004E0,-1.467342688E0,-6.440403986E-1,2.130190532E0
3.970226000E0,-1.307896426E0,-5.933325405E-1,-9.053980744E-1,1.697758004E0
3.980280000E0,-1.170450021E0,9.874207690E-2,-9.749594754E-1,1.526515387E0
3.990333000E0,-9.929180288E-1,5.101772401E-1,-9.108938724E-1,1.440796542E0
4.000386000E0,-9.081357408E-1,6.433901882E-1,-7.277900684E-1,1.329789397E0
4.010439000E0,-1.016767067E0,5.335543718E-1,-3.665625340E-1,1.205347928E0
4.020492000E0,-1.281463503E0,2.562868973E-1,8.786274746E-2,1.309790650E0
4.030545000E0,-1.473344563E0,-4.685817925E-2,5.265604806E-1,1.565313333E0
4.040598000E0,-1.674347278E0,-3.839146946E-1,9.832438105E-1,1.979292220E0
4.050651000E0,-1.956776565E0,-6.999713552E-1,1.329722913E0,2.467204379E0
4.060704000E0,-2.282640724E0,-9.198004974E-1,1.576246933E0,2.922505094E0
4.070758000E0,-2.639210951E0,-1.030636005E0,1.753266563E0,3.331904660E0
4.080811000E0,-2.952688369E0,-9.855006896E-1,1.892906990E0,3.643168550E0
4.090864000E0,-3.080745900E0,-8.052743004E-1,1.966776035E0,3.742682189E0
4.100917000E0,-3.005860609E0,-4.333479694E-1,1.921274172E0,3.593644794E0
4.110970000E0,-2.763432124E0,1.027697852E-1,1.770657352E0,3.283648305E0
4.121023000E0,-2.379242574E0,7.565330802E-1,1.552827665E0,2.940137970E0
4.131076000E0,-2.020079107E0,1.400751819E0,1.332678096E0,2.796221766E0
4.141130000E0,-1.720100572E0,2.006513713E0,1.059731677E0,2.847432964E0
4.151183000E0,-1.491622959E0,2.540795880E0,8.286743458E-1,3.060601890E0
4.161236000E0,-1.347157556E0,3.009523012E0,6.260969748E-1,3.356197203E0
4.171289000E0,-1.268989638E0,3.356336283E0,4.080413662E-1,3.611346799E0
4.181342000E0,-1.244817249E0,3.649944862E0,2.054961549E-1,3.861851388E0
4.191395000E0,-1.211589276E0,3.915611935E0,4.248996198E-2,4.098996316E0
4.201448000E0,-1.158396571E0,4.119102349E0,-8.327663004E-2,4.279698795E0
4.211501000E0,-1.143759236E0,4.307625352E0,-1.423147970E-1,4.459156296E0
4.221554000E0,-1.168347947E0,4.559027851E0,-7.468575463E-2,4.706946976E0
4.231608000E0,-1.203636478E0,4.850273570E0,5.226358294E-2,4.997662049E0
4.241661000E0,-1.245794318E0,5.164677186E0,2.342937651E-1,5.317968361E0
4.251714000E0,-1.255877257E0,5.450789634E0,4.315905887E-1,5.610223325E0
4.261767000E0,-1.241799501E0,5.718664032E0,6.073923898E-1,5.883375716E0
4.271820000E0,-1.236375039E0,5.945677502E0,7.418630739E-1,6.118011524E0
4.281873000E0,-1.211392810E0,6.110882978E0,8.298456162E-1,6.284823551E0
4.291926000E0,-1.181902378E0,6.222891072E0,8.389035380E-1,6.389446429E0
4.301979000E0,-1.134595479E0,6.321654053E0,7.703880577E-1,6.468702700E0
4.312032000E0,-1.007823751E0,6.429317665E0,6.021860290E-1,6.535630219E0
4.322086000E0,-8.781944883E-1,6.528163092E0,3.358845323E-1,6.595525554E0
4.332139000E0,-7.988220441E-1,6.588766558E0,4.217596650E-3,6.637015836E0
4.342192000E0,-8.872032934E-1,6.563905951E0,-3.783447466E-1,6.634390384E0
4.352245000E0,-1.137910266E0,6.397347429E0,-7.436290061E-1,6.540174156E0
4.362298000E0,-1.489627304E0,6.117799065E0,-1.055473296E0,6.384393376E0
4.372351000E0,-1.884412009E0,5.753763113E0,-1.282632362E0,6.188856466E0
4.382404000E0,-2.200127741E0,5.350105258E0,-1.396509810E0,5.951002268E0
4.392457000E0,-2.438199465E0,4.991156384E0,-1.422815849E0,5.734183779E0
4.402511000E0,-2.583471199E0,4.686355650E0,-1.374732879E0,5.525046896E0
4.412564000E0,-2.585928199E0,4.454187275E0,-1.273221853E0,5.305459717E0
4.422617000E0,-2.490432642E0,4.288918940E0,-1.125517239E0,5.085653299E0
4.432670000E0,-2.492120733E0,4.127186125E0,-9.204347742E-1,4.908312463E0
4.442723000E0,-2.807012592E0,3.835443977E0,-6.152101171E-1,4.792539377E0
4.452776000E0,-3.465010879E0,3.280663080E0,-1.320843624E-1,4.773520390E0
4.462829000E0,-4.004444005E0,2.686629824E0,4.058663481E-1,4.839243649E0
4.472882000E0,-4.299565258E0,2.264007402E0,8.672701353E-1,4.936005309E0
4.482936000E0,-4.275139099E0,2.143130252E0,1.124973886E0,4.912778016E0
4.492989000E0,-3.776856923E0,2.242632028E0,1.233505225E0,4.562409645E0
4.503042000E0,-2.986300503E0,2.466068172E0,1.317396544E0,4.090845460E0
4.513095000E0,-2.360964763E0,2.595920213E0,1.496124145E0,3.814622369E0
4.523148000E0,-1.753233234E0,2.642217590E0,1.651923060E0,3.575470649E0
4.533201000E0,-1.215845464E0,2.633086870E0,1.763167507E0,3.394139997E0
4.543254000E0,-8.311197245E-1,2.502911770E0,1.826852603E0,3.208226575E0
4.553307000E0,-6.158714372E-1,2.234060302E0,1.895153344E0,2.993648152E0
4.563355750E0,-5.894180489E-1,1.873764229E0,1.947221630E0,2.765877456E0
4.573409750E0,-7.414415628E-1,1.480068276E0,2.035695850E0,2.623813120E0
4.583462750E0,-8.200638092E-1,1.175535344E0,2.019642758E0,2.476559078E0
4.593515750E0,-7.147770900E-1,9.921657845E-1,1.909865524E0,2.267793101E0
4.603568750E0,-5.884702152E-1,8.582927589E-1,1.741373911E0,2.028631744E0
4.613621750E0,-3.904261905E-1,7.446356043E-1,1.628213478E0,1.832482994E0
4.623674750E0,-1.759257621E-1,6.079464135E-1,1.623820319E0,1.742796931E0
4.633727750E0,-9.254212797E-2,3.872574382E-1,1.692769370E0,1.738965356E0
4.643780750E0,-1.431363308E-1,5.707905740E-2,1.802216091E0,1.808792101E0
4.653834750E0,-3.676542091E-1,-3.728320648E-1,1.906626166E0,1.977219437E0
4.663887750E0,-6.804814160E-1,-8.858514172E-1,2.063029829E0,2.346034903E0
4.673940750E0,-1.005760853E0,-1.441677651E0,2.266544509E0,2.868311934E0
4.683993750E0,-1.409076061E0,-1.983079680E0,2.546767057E0,3.521948723E0
4.694046750E0,-1.786949449E0,-2.456426698E0,2.889988090E0,4.192761813E0
4.704099750E0,-1.999448376E0,-2.827738340E0,3.164563397E0,4.691306793E0
4.714152750E0,-2.061345246E0,-3.090639973E0,3.399481133E0,5.035640142E0
4.724205750E0,-2.057694830E0,-3.252823317E0,3.636031412E0,5.294874122E0
4.734258750E0,-2.012343240E0,-3.357433221E0,3.872748336E0,5.506365664E0
4.744312750E0,-1.958323154E0,-3.428467243E0,4.078546938E0,5.676615395E0
4.754365750E0,-1.862422970E0,-3.483562633E0,4.285113280E0,5.828037728E0
4.764418750E0,-1.749117379E0,-3.547413350E0,4.323348808E0,5.859598792E0
4.774471750E0,-1.706361954E0,-3.667605792E0,4.222946852E0,5.847758842E0
4.784524750E0,-1.633970500E0,-3.849857072E0,4.069348099E0,5.835310876E0
4.794577750E0,-1.494105687E0,-4.003914540E0,3.873150040E0,5.767579620E0
4.804630750E0,-1.245440562E0,-4.129228849E0,3.637438252E0,5.642039536E0
4.814683750E0,-9.304487157E-1,-4.285720513E0,3.341313032E0,5.513393502E0
4.824737750E0,-6.267221153E-1,-4.523900118E0,2.963381757E0,5.444270780E0
4.834790750E0,-2.769048375E-1,-4.784638282E0,2.561271075E0,5.434109798E0
4.844843750E0,1.336006916E-1,-5.012221563E0,2.207611007E0,5.478481587E0
4.854896750E0,5.862400872E-1,-5.261174371E0,1.903171631E0,5.625450689E0
4.864949750E0,1.019222898E0,-5.537741239E0,1.582800347E0,5.848987116E0
4.875002750E0,1.492933320E0,-5.778980985E0,1.246436927E0,6.097464730E0
4.885055750E0,1.943365391E0,-5.938598278E0,8.883939327E-1,6.311328095E0
4.895108750E0,2.304618069E0,-6.106908626E0,5.398482782E-1,6.549582702E0
4.905162750E0,2.617875631E0,-6.292417390E0,1.485531914E-1,6.816880333E0
4.915215750E0,2.848493909E0,-6.467464315E0,-3.245497048E-1,7.074414798E0
4.925268750E0,3.046733231E0,-6.596533999E0,-8.444518147E-1,7.315049081E0
4.935321750E0,3.117257084E0,-6.742707959E0,-1.246048526E0,7.532200161E0
4.945374750E0,3.068394241E0,-6.857794611E0,-1.510200001E0,7.663230011E0
4.955427750E0,2.934510545E0,-6.934423542E0,-1.589587064E0,7.695737069E0
4.965480750E0,2.732610866E0,-6.964960041E0,-1.532445295E0,7.637160408E0
4.975533750E0,2.513944881E0,-6.962453924E0,-1.483088948E0,7.549518948E0
4.985587750E0,2.350736228E0,-6.846839268E0,-1.419604558E0,7.377021478E0
4.995640750E0,2.202316353E0,-6.636462296E0,-1.275228032E0,7.107674420E0
5.005693750E0,2.120144262E0,-6.359839295E0,-1.167681803E0,6.804854762E0
5.015746750E0,2.067770752E0,-6.003063830E0,-1.149166156E0,6.452366549E0
5.025799750E0,2.012747868E0,-5.661411020E0,-1.095152501E0,6.107543509E0
5.035852750E0,1.954911888E0,-5.361067033E0,-1.039519168E0,5.800286228E0
5.045905750E0,1.853309500E0,-5.113419909E0,-9.530148751E-1,5.521780204E0
5.055959750E0,1.669905149E0,-4.911161796E0,-8.094610530E-1,5.250078151E0
5.066012750E0,1.427458538E0,-4.760158329E0,-6.124408758E-1,5.007177750E0
5.076065750E0,1.154316384E0,-4.646968220E0,-4.187023021E-1,4.806461440E0
5.086118750E0,8.156789821E-1,-4.576083010E0,-1.930372001E-1,4.652217888E0
5.096171750E0,4.736537039E-1,-4.524604708E0,6.430124581E-2,4.549783538E0
5.106224750E0,1.285685778E-1,-4.444826175E0,3.417530903E-1,4.459798737E0
5.116277750E0,-1.945935827E-1,-4.330691156E0,6.338473861E-1,4.381154535E0
5.126330750E0,-5.265014237E-1,-4.145484694E0,9.145178305E-1,4.277685117E0
5.136384750E0,-9.608922440E-1,-3.938153829E0,1.194595367E0,4.226041596E0
5.146437750E0,-1.432379555E0,-3.715439232E0,1.567805601E0,4.279510985E0
5.156490750E0,-1.816488998E0,-3.394034452E0,1.926088039E0,4.304522886E0
5.166543750E0,-2.066904779E0,-2.938660898E0,2.213472256E0,4.219867613E0
5.176596750E0,-2.227265253E0,-2.385080142E0,2.436033071E0,4.072293569E0
5.186649750E0,-2.386601295E0,-1.831743214E0,2.626811346E0,3.993906207E0
5.196702750E0,-2.693999362E0,-1.366165100E0,2.756954579E0,4.089601226E0
5.206755750E0,-3.311513282E0,-1.166669650E0,2.901024710E0,4.554468427E0
5.216809750E0,-4.281488006E0,-1.372834580E0,3.170328167E0,5.501526608E0
5.226862750E0,-5.288427073E0,-1.820164996E0,3.720486256E0,6.717326812E0
5.236915750E0,-6.020208451E0,-2.163369658E0,4.417313563E0,7.774042525E0
5.246968750E0,-6.374481307E0,-2.125313493E0,5.010003714E0,8.381593321E0
5.257021750E0,-6.280071579E0,-1.738801137E0,5.425858276E0,8.479544000E0
5.267074750E0,-5.639278139E0,-1.065472912E0,5.575369241E0,8.001339427E0
5.277127750E0,-4.778838136E0,-3.030638185E-1,5.610515100E0,7.376111530E0
5.287180750E0,-4.090412108E0,4.463814130E-1,5.643968191E0,6.984633456E0
5.297234750E0,-3.404615573E0,1.267506492E0,5.737904295E0,6.791283060E0
5.307287750E0,-2.776124675E0,2.053755853E0,5.768425006E0,6.723057963E0
5.317340750E0,-1.995616695E0,2.647892605E0,5.672431852E0,6.570411277E0
5.327393750E0,-1.059328365E0,3.049292557E0,5.600184824E0,6.463933149E0
5.337446750E0,-2.193460160E-1,3.191377559E0,5.279791321E0,6.173264921E0
5.347499750E0,4.477306581E-1,2.963531153E0,4.595126222E0,5.486179420E0
5.357552750E0,7.842706633E-1,2.313557292E0,3.572720100E0,4.328043060E0
5.367605750E0,8.045903224E-1,1.484937545E0,2.524301469E0,3.037186693E0
5.377659750E0,7.822065961E-1,7.053686276E-1,1.532162874E0,1.859278122E0
5.387712750E0,8.432252151E-1,7.739111513E-2,6.611406539E-1,1.074302151E0
5.397765750E0,1.045101505E0,-3.719869959E-1,-4.555514552E-2,1.110264271E0
5.407818750E0,1.392966982E0,-6.315501612E-1,-4.699103165E-1,1.600008852E0
5.417871750E0,1.745318443E0,-7.258403143E-1,-6.107721535E-1,1.986459980E0
5.427924750E0,2.012226881E0,-6.734302586E-1,-4.249674475E-1,2.164061613E0
5.437977750E0,2.110385259E0,-5.702479523E-1,-6.220092595E-2,2.186956247E0
5.448030750E0,1.994784636E0,-4.745778564E-1,4.525780729E-1,2.099813515E0
5.458084750E0,1.865226125E0,-4.056102401E-1,1.052207699E0,2.179616757E0
5.468137750E0,1.982690840E0,-3.733985138E-1,1.507770630E0,2.518702382E0
5.478190750E0,2.148538342E0,-4.789331549E-1,1.813319222E0,2.851967842E0
5.488243750E0,2.240320916E0,-6.893226984E-1,1.869772920E0,2.998375287E0
5.498296750E0,2.241661098E0,-1.004459994E0,1.811666799E0,3.052232126E0
5.508349750E0,2.147053149E0,-1.326092377E0,1.690867417E0,3.037662068E0
5.518402750E0,2.044959009E0,-1.630463486E0,1.529083731E0,3.029581751E0
5.528456750E0,1.998519838E0,-1.868737232E0,1.370332410E0,3.060077009E0
5.538509750E0,2.026906900E0,-2.006944945E0,1.244483373E0,3.112060163E0
5.548562750E0,2.066279712E0,-2.087903738E0,1.204780194E0,3.174956564E0
5.558615750E0,2.077765982E0,-2.084988024E0,1.240283902E0,3.194149448E0
5.568668750E0,2.051147702E0,-2.003710557E0,1.344145655E0,3.166826556E0
5.578721750E0,2.051461698E0,-1.766580673E0,1.503058943E0,3.096528469E0
5.588774750E0,2.058959582E0,-1.409566350E0,1.676534137E0,3.006153451E0
5.598827750E0,2.057548065E0,-1.039109132E0,1.872127009E0,2.969530496E0
5.608881750E0,1.941906511E0,-6.975067538E-1,2.083483974E0,2.932306608E0
5.618934750E0,1.794994048E0,-3.457742205E-1,2.294570798E0,2.933703904E0
5.628987750E0,1.695955664E0,-3.265816122E-3,2.456834541E0,2.985349601E0
5.639040750E0,1.560731201E0,3.318217407E-1,2.562300770E0,3.018505058E0
5.649093750E0,1.422394849E0,6.364954439E-1,2.639155988E0,3.064878119E0
5.659146750E0,1.294879355E0,8.792430402E-1,2.678680826E0,3.102436436E0
5.669199750E0,1.201325659E0,1.106629270E0,2.659923543E0,3.121378692E0
5.679252750E0,1.155316257E0,1.311119704E0,2.586134605E0,3.121198925E0
5.689306750E0,1.109626699E0,1.446365071E0,2.455874428E0,3.058522934E0
5.699359750E0,1.002927293E0,1.480906036E0,2.304939666E0,2.917480540E0
5.709412750E0,8.201784146E-1,1.408294289E0,2.135673298E0,2.686463450E0
5.719465750E0,5.993004280E-1,1.272779365E0,1.967082283E0,2.418375699E0
5.729518750E0,3.983626163E-1,1.146253512E0,1.803111738E0,2.173430888E0
5.739571750E0,2.830134237E-1,1.093419533E0,1.681459247E0,2.025578454E0
5.749624750E0,2.037327808E-1,1.148386137E0,1.582137272E0,1.965567632E0
5.759678750E0,2.076936847E-1,1.261159193E0,1.497721020E0,1.968966082E0
5.769731750E0,2.236793876E-1,1.346383677E0,1.442150837E0,1.985593239E0
5.779784750E0,2.043017149E-1,1.431007505E0,1.419165432E0,2.025722635E0
5.789837750E0,8.181073308E-2,1.515125257E0,1.437925054E0,2.090436797E0
5.799890750E0,-8.106462836E-2,1.621080606E0,1.414612205E0,2.153044703E0
5.809943750E0,-2.142308718E-1,1.724820152E0,1.413978367E0,2.240587924E0
5.819996750E0,-3.758935207E-1,1.867023559E0,1.425014255E0,2.378600121E0
5.830049750E0,-4.780654281E-1,2.106661460E0,1.445050325E0,2.598988169E0
5.840103750E0,-5.451154500E-1,2.348420731E0,1.495359330E0,2.836957932E0
5.850156750E0,-6.410220659E-1,2.540953462E0,1.509024857E0,3.023989055E0
5.860209750E0,-7.827135497E-1,2.689671253E0,1.459704178E0,3.158751057E0
5.870262750E0,-9.899961752E-1,2.755883076E0,1.368255041E0,3.232198294E0
5.880315750E0,-1.370547588E0,2.664708612E0,1.241079124E0,3.243354755E0
5.890368750E0,-1.830185516E0,2.428131436E0,1.086431306E0,3.228890565E0
5.900421750E0,-2.212760650E0,2.227311738E0,8.946017754E-1,3.264588735E0
5.910475750E0,-2.485018120E0,2.182426757E0,6.981030236E-1,3.380184823E0
5.920528750E0,-2.530838656E0,2.395427375E0,4.635352434E-1,3.515406311E0
5.930581750E0,-2.326414150E0,2.851503179E0,2.535792710E-1,3.688844754E0
5.940634750E0,-1.858766121E0,3.459841063E0,1.361794598E-1,3.929892686E0
5.950687750E0,-1.310453998E0,4.077226929E0,1.985818224E-1,4.287248985E0
5.960740750E0,-8.503313363E-1,4.545453832E0,3.671507639E-1,4.638859085E0
5.970793750E0,-5.158191454E-1,4.803466901E0,5.416812341E-1,4.861356006E0
5.980846750E0,-3.453774869E-1,4.871713555E0,6.605191679E-1,4.928403813E0
5.990900750E0,-3.480297840E-1,4.737143103E0,6.542385274E-1,4.794755214E0
6.000953750E0,-6.397128743E-1,4.357631618E0,4.829402518E-1,4.430735511E0
6.011006750E0,-1.008424260E0,3.813521596E0,1.119775419E-1,3.946188721E0
6.021059750E0,-1.266085911E0,3.337499770E0,-3.273880894E-1,3.584558719E0
6.031112750E0,-1.603557962E0,2.846535969E0,-7.491460003E-1,3.351922566E0
6.041165750E0,-2.026346737E0,2.310873713E0,-1.015641040E0,3.236934528E0
6.051218750E0,-2.517963088E0,1.786044008E0,-1.071301709E0,3.267687050E0
6.061272750E0,-2.958470095E0,1.301989277E0,-9.494457346E-1,3.368852710E0
6.071325750E0,-3.276271529E0,9.126085684E-1,-7.331741846E-1,3.479131201E0
6.081378750E0,-3.450917335E0,6.250042033E-1,-3.943831475E-1,3.529164033E0
6.091431750E0,-3.441928411E0,4.946998796E-1,5.050927207E-2,3.477664495E0
6.101484750E0,-3.300793582E0,5.395380834E-1,5.539101009E-1,3.390155750E0
6.111537750E0,-3.056394585E0,7.620822340E-1,1.018465099E0,3.310526899E0
6.121590750E0,-2.764704478E0,1.085164288E0,1.407263424E0,3.286573098E0
6.131643750E0,-2.473282174E0,1.432372245E0,1.709228259E0,3.330206630E0
6.141697750E0,-2.047940505E0,1.843905130E0,1.847928307E0,3.317964055E0
6.151750750E0,-1.565096147E0,2.304585909E0,1.843855137E0,3.340725060E0
6.161803750E0,-1.146024447E0,2.732154198E0,1.760986204E0,3.446608624E0
6.171856750E0,-8.555511457E-1,3.001920755E0,1.577439035E0,3.497400447E0
6.181909750E0,-6.836202013E-1,3.070094612E0,1.260960826E0,3.388633900E0
6.191962750E0,-6.516569817E-1,2.891818269E0,7.768774438E-1,3.064442573E0
6.202015750E0,-7.195577735E-1,2.530195463E0,1.804133539E-1,2.636702760E0
6.212068750E0,-8.055790865E-1,2.144669531E0,-4.357184306E-1,2.332041083E0
6.222122750E0,-8.161227858E-1,1.798327985E0,-1.033007709E0,2.228709238E0
6.232175750E0,-8.063667065E-1,1.485461455E0,-1.562069628E0,2.301496149E0
6.242228750E0,-8.044178295E-1,1.156826739E0,-1.942032811E0,2.399338990E0
6.252281750E0,-7.937636179E-1,8.334033546E-1,-2.175210416E0,2.460927099E0
6.262334750E0,-7.275702131E-1,4.807172866E-1,-2.292235420E0,2.452507033E0
6.272387750E0,-6.624445099E-1,9.008066945E-2,-2.272238820E0,2.368547342E0
6.282440750E0,-5.993834585E-1,-3.116262618E-1,-2.159229683E0,2.262442106E0
6.292494750E0,-5.372410047E-1,-7.134591275E-1,-2.005195019E0,2.195098834E0
6.302547750E0,-4.935699052E-1,-1.075283443E0,-1.827293483E0,2.176889342E0
6.312600750E0,-4.195149189E-1,-1.388211442E0,-1.634216668E0,2.184899973E0
6.322653750E0,-3.376936609E-1,-1.647938621E0,-1.422335938E0,2.202902229E0
6.332706750E0,-1.999560642E-1,-1.853702140E0,-1.217392638E0,2.226710328E0
6.342759750E0,-5.025681853E-2,-2.028475416E0,-1.028355956E0,2.274808615E0
6.352812750E0,1.022724795E-1,-2.178364696E0,-8.865327640E-1,2.354075774E0
6.362866750E0,2.395382059E-1,-2.299377210E0,-7.963188511E-1,2.445125317E0
6.372919750E0,3.866676003E-1,-2.406088457E0,-7.728071970E-1,2.556561061E0
6.382972750E0,5.190637654E-1,-2.494914533E0,-8.046062560E-1,2.672342969E0
6.393025750E0,6.268969470E-1,-2.592442874E0,-8.573275298E-1,2.801565693E0
6.403078750E0,7.661419559E-1,-2.684086285E0,-9.254221568E-1,2.940697001E0
6.413131750E0,9.525517756E-1,-2.737512879E0,-9.957413569E-1,3.064772830E0
6.423184750E0,1.125986624E0,-2.756184208E0,-1.089704651E0,3.170465816E0
6.433237750E0,1.267662905E0,-2.782791086E0,-1.186320241E0,3.279977314E0
6.443291750E0,1.337533039E0,-2.801917621E0,-1.245533533E0,3.345308769E0
6.453344750E0,1.362901769E0,-2.816022859E0,-1.289824145E0,3.383952171E0
6.463397750E0,1.314785031E0,-2.825871032E0,-1.331708335E0,3.389344163E0
6.473450750E0,1.178527949E0,-2.814549068E0,-1.281830708E0,3.309638130E0
6.483503750E0,1.022789699E0,-2.801777287E0,-1.141008705E0,3.193423806E0
6.493556750E0,9.639953613E-1,-2.749561944E0,-9.165827747E-1,3.054423337E0
6.503609750E0,9.072645056E-1,-2.641911780E0,-6.797762418E-1,2.874877819E0
6.513663750E0,8.603879625E-1,-2.497804812E0,-4.452094848E-1,2.679087122E0
6.523716750E0,8.167268032E-1,-2.393999484E0,-2.698101184E-1,2.543830518E0
6.533769750E0,6.658265394E-1,-2.374993841E0,-9.169603586E-2,2.468264347E0
6.543822750E0,3.989958698E-1,-2.463475224E0,5.885368735E-2,2.496271547E0
6.553875750E0,1.236803055E-1,-2.545962772E0,1.492852628E-1,2.553332987E0
6.563932583E0,-1.530824447E-1,-2.613726154E0,1.974961406E-1,2.625643420E0
6.573985583E0,-5.127247989E-1,-2.714915729E0,1.949669275E-1,2.769777291E0
6.584038583E0,-1.139025330E0,-2.972085045E0,2.116550271E-1,3.189900636E0
6.594092583E0,-1.998747879E0,-3.456362555E0,4.362946737E-1,4.016439746E0
6.604145583E0,-2.705504344E0,-3.950788200E0,8.194127217E-1,4.857974718E0
6.614198583E0,-3.117095116E0,-4.170513993E0,1.197288741E0,5.342562049E0
6.624251583E0,-3.214858223E0,-4.049767820E0,1.436859691E0,5.366609596E0
6.634304583E0,-3.091981909E0,-3.735925244E0,1.597152191E0,5.105720780E0
6.644357583E0,-3.007265110E0,-3.427865272E0,1.814389848E0,4.907740242E0
6.654410583E0,-2.994359720E0,-3.069458435E0,2.104465392E0,4.776666181E0
6.664464583E0,-2.847211615E0,-2.540060300E0,2.343682147E0,4.477875201E0
6.674517583E0,-2.624815691E0,-1.799317480E0,2.403528253E0,3.988000611E0
6.684570583E0,-2.325914213E0,-8.661414765E-1,2.293473861E0,3.379363895E0
6.694623583E0,-1.911766453E0,1.480371746E-1,2.053812863E0,2.809788827E0
6.704676583E0,-1.471753535E0,1.183908557E0,1.720326274E0,2.554842545E0
6.714729583E0,-1.033697096E0,2.250228438E0,1.324882442E0,2.808446402E0
6.724782583E0,-6.606687105E-1,3.307263526E0,8.964266914E-1,3.489707149E0
6.734836583E0,-3.296344435E-1,4.344488539E0,4.793325198E-1,4.383263532E0
6.744889583E0,-1.490513742E-2,5.263613244E0,1.823161840E-1,5.266790839E0
6.754942583E0,3.219962257E-1,5.989846199E0,1.149679542E-2,5.998505750E0
6.764995583E0,6.478937137E-1,6.482824366E0,-3.779464781E-2,6.515228811E0
6.775048583E0,9.234291333E-1,6.794648191E0,-1.626461506E-2,6.857129862E0
6.785101583E0,1.096558757E0,6.900982146E0,8.091186985E-2,6.988028507E0
6.795154583E0,1.061567849E0,6.695456024E0,2.696958053E-1,6.784452336E0
6.805207583E0,8.263016188E-1,6.214298004E0,4.764147592E-1,6.287069673E0
6.815261583E0,4.423219836E-1,5.511110095E0,6.673761977E-1,5.568965273E0
6.825314583E0,6.674596667E-3,4.630500122E0,7.808547199E-1,4.695882242E0
6.835367583E0,-4.632053143E-1,3.666262979E0,9.223123151E-1,3.808766651E0
6.845420583E0,-9.442259252E-1,2.710563354E0,1.045983119E0,3.054962681E0
6.855473583E0,-1.322686374E0,1.826585678E0,1.169954616E0,2.540611793E0
6.865526583E0,-1.574972094E0,1.039132375E0,1.278521769E0,2.279243538E0
6.875579583E0,-1.675578117E0,3.726752132E-1,1.355648882E0,2.187288901E0
6.885633583E0,-1.628564165E0,-1.274780720E-1,1.394151043E0,2.147586792E0
6.895686583E0,-1.422029398E0,-4.865932998E-1,1.350125749E0,2.020341601E0
6.905739583E0,-1.088987197E0,-6.451890841E-1,1.215489515E0,1.754872312E0
6.915792583E0,-7.251231533E-1,-6.451899612E-1,1.044420743E0,1.425793941E0
6.925845583E0,-3.446220267E-1,-5.011376640E-1,8.253099310E-1,1.025202313E0
6.935898583E0,4.433943629E-2,-2.906212360E-1,5.893151379E-1,6.585734736E-1
6.945951583E0,4.650577122E-1,-1.827196419E-2,3.471209805E-1,5.806078844E-1
6.956005583E0,8.538051671E-1,2.431044227E-1,1.583746134E-1,9.017569195E-1
6.966058583E0,1.213207201E0,5.239833203E-1,-1.486245275E-2,1.321609293E0
6.976111583E0,1.465377147E0,7.736836946E-1,-1.652205335E-1,1.665297110E0
6.986164583E0,1.577923184E0,9.283486882E-1,-3.110176398E-1,1.856988108E0
6.996217583E0,1.627286548E0,1.011704840E0,-4.805892326E-1,1.975493408E0
7.006270583E0,1.616460428E0,1.074628628E0,-6.969736339E-1,2.062411998E0
7.016323583E0,1.515561460E0,1.103433474E0,-9.282070394E-1,2.091903506E0
7.026377583E0,1.374377514E0,1.028240620E0,-1.113234431E0,2.045845357E0
7.036430583E0,1.262462976E0,9.569398186E-1,-1.222237494E0,2.000852587E0
7.046483583E0,1.194495526E0,9.826875941E-1,-1.251355020E0,1.989568761E0
7.056536583E0,1.153617057E0,1.061907280E0,-1.266517435E0,2.015575798E0
7.066589583E0,1.093949729E0,1.181882497E0,-1.209230509E0,2.013904335E0
7.076642583E0,9.502970892E-1,1.293080751E0,-1.163387900E0,1.982068060E0
7.086695583E0,7.794730228E-1,1.424367115E0,-1.145855609E0,1.987305952E0
7.096749583E0,6.548010296E-1,1.612207748E0,-1.145720977E0,2.083423809E0
7.106802583E0,5.459176880E-1,1.845786472E0,-1.166794488E0,2.250858325E0
7.116855583E0,4.486200196E-1,2.106640995E0,-1.222054623E0,2.476411457E0
7.126908583E0,3.508364475E-1,2.332540570E0,-1.320018874E0,2.703013421E0
7.136961583E0,2.238664985E-1,2.512028456E0,-1.463588776E0,2.915903853E0
7.147014583E0,7.984256029E-2,2.655946267E0,-1.673418448E0,3.140183866E0
7.157067583E0,-1.505570322E-1,2.733285050E0,-1.918257155E0,3.342637446E0
7.167121583E0,-4.883495110E-1,2.725646832E0,-2.150936285E0,3.506303295E0
7.177174583E0,-9.180801004E-1,2.673767703E0,-2.306435091E0,3.648499367E0
7.187227583E0,-1.329439908E0,2.591414934E0,-2.372686237E0,3.756658330E0
7.197280583E0,-1.746586120E0,2.563173174E0,-2.336119066E0,3.883023575E0
7.207333583E0,-2.113188999E0,2.578119242E0,-2.205918823E0,3.997292137E0
7.217386583E0,-2.329860499E0,2.630713193E0,-1.989326261E0,4.038108569E0
7.227439583E0,-2.484939183E0,2.723837996E0,-1.741575787E0,4.077658935E0
7.237493583E0,-2.555502797E0,2.858329218E0,-1.495759425E0,4.115572466E0
7.247546583E0,-2.649780963E0,2.918046247E0,-1.176174007E0,4.113358524E0
7.257599583E0,-2.927403839E0,2.816050341E0,-7.848654713E-1,4.137130233E0
7.267652583E0,-3.369425860E0,2.514741856E0,-3.663701606E-1,4.220329883E0
7.277705583E0,-3.801790035E0,2.179354045E0,7.822405100E-3,4.382151608E0
7.287758583E0,-4.150060140E0,1.931127754E0,2.866970234E-1,4.586332822E0
7.297811583E0,-4.365580907E0,1.787234793E0,4.371816963E-1,4.737471129E0
7.307865583E0,-4.407506613E0,1.723324142E0,4.628335775E-1,4.755015832E0
7.317918583E0,-4.267952871E0,1.728824033E0,4.541544092E-1,4.627149282E0
7.327971583E0,-3.890263671E0,1.836537931E0,4.557968920E-1,4.326057536E0
7.338024583E0,-3.442690887E0,2.006049882E0,5.025630690E-1,4.016083455E0
7.348077583E0,-2.945918462E0,2.243988875E0,5.210674600E-1,3.739710277E0
7.358130583E0,-2.270329412E0,2.549890054E0,4.852311909E-1,3.448446641E0
7.368184583E0,-1.522738917E0,2.831996575E0,4.963771534E-1,3.253510210E0
7.378237583E0,-8.187230426E-1,3.030659820E0,5.292531234E-1,3.183600985E0
7.388290583E0,-2.051250029E-1,3.121975787E0,5.728185345E-1,3.180712208E0
7.398343583E0,3.019373524E-1,3.102924973E0,6.000418550E-1,3.174800747E0
7.408396583E0,6.674666834E-1,2.972658364E0,5.345957243E-1,3.093218730E0
7.418449583E0,8.984369642E-1,2.736893367E0,3.390538694E-1,2.900470963E0
7.428502583E0,9.274935329E-1,2.338947364E0,7.211078703E-2,2.517164872E0
7.438556583E0,8.294474208E-1,1.776890776E0,-2.089163375E-1,1.972047132E0
7.448609583E0,7.261698049E-1,1.189999748E0,-4.498438418E-1,1.464848616E0
7.458662583E0,6.042875183E-1,5.808020304E-1,-6.723008689E-1,1.074468642E0
7.468715583E0,3.934147024E-1,-7.552980021E-2,-8.001938009E-1,8.948687042E-1
7.478768583E0,1.102825803E-1,-7.807224266E-1,-8.439841837E-1,1.154988769E0
7.488821583E0,-2.717475933E-1,-1.541522805E0,-8.184444228E-1,1.766349508E0
7.498874583E0,-7.338776046E-1,-2.328778910E0,-7.557178321E-1,2.555953245E0
7.508928583E0,-1.205848480E0,-3.078471333E0,-6.751531407E-1,3.374446335E0
7.518981583E0,-1.606750542E0,-3.740901225E0,-5.931053030E-1,4.114336298E0
7.529034583E0,-1.912991445E0,-4.265772445E0,-4.723567915E-1,4.698879841E0
7.539087583E0,-2.116842340E0,-4.636541758E0,-2.705220169E-1,5.104088863E0
7.549140583E0,-2.183904641E0,-4.859898379E0,5.431887925E-2,5.328320774E0
7.559190250E0,-2.030942649E0,-4.852356056E0,4.317320913E-1,5.277923828E0
7.569243250E0,-1.610909082E0,-4.528432880E0,7.690661484E-1,4.867565630E0
7.579297250E0,-1.135680723E0,-3.973792023E0,1.110202065E0,4.279409115E0
7.589350250E0,-7.939349413E-1,-3.423264683E0,1.442763771E0,3.798768363E0
7.599403250E0,-4.032210678E-1,-2.900218964E0,1.755425794E0,3.413997215E0
7.609456250E0,1.074601293E-2,-2.392535488E0,1.991949322E0,3.113230418E0
7.619509250E0,4.606337088E-1,-1.883168599E0,2.130249420E0,2.880359349E0
7.629562250E0,9.789917153E-1,-1.426659662E0,2.152351311E0,2.761593514E0
7.639615250E0,1.442739651E0,-1.079758171E0,2.086315342E0,2.756825551E0
7.649669250E0,1.826958438E0,-8.689956486E-1,1.924254790E0,2.792075763E0
7.659722250E0,2.111044241E0,-7.992521799E-1,1.664458906E0,2.804591821E0
7.669775250E0,2.264325491E0,-8.804256396E-1,1.337672641E0,2.773389141E0
7.679828250E0,2.251076285E0,-1.118684767E0,9.956691438E-1,2.703730218E0
7.689881250E0,2.181490325E0,-1.460555240E0,6.427247751E-1,2.702816454E0
7.699934250E0,2.184950708E0,-1.793822266E0,3.377649969E-1,2.847085020E0
7.709988250E0,2.230351413E0,-2.054738477E0,5.033970281E-2,3.032977370E0
7.720041250E0,2.266311790E0,-2.247760036E0,-2.000579520E-1,3.198220989E0
7.730094250E0,2.298301322E0,-2.392212283E0,-3.805227613E-1,3.339111580E0
7.740147250E0,2.333020919E0,-2.498918414E0,-5.285463412E-1,3.459326680E0
7.750200250E0,2.328280581E0,-2.575906363E0,-6.279957850E-1,3.528535498E0
7.760253250E0,2.269737673E0,-2.646483426E0,-6.677730775E-1,3.549859788E0
7.770306250E0,2.164738637E0,-2.718587196E0,-6.636782724E-1,3.537976619E0
7.780360250E0,2.061179186E0,-2.775916807E0,-6.398228019E-1,3.516183580E0
7.790413250E0,1.939710882E0,-2.819886407E0,-6.121080230E-1,3.476911544E0
7.800466250E0,1.797188509E0,-2.851913653E0,-5.850817537E-1,3.421347495E0
7.810519250E0,1.624520230E0,-2.907196154E0,-5.253774427E-1,3.371479929E0
7.820572250E0,1.400622157E0,-2.993052868E0,-4.387082581E-1,3.333552584E0
7.830625250E0,1.113560706E0,-3.090918301E0,-3.133699746E-1,3.300302127E0
7.840678250E0,7.961311555E-1,-3.184658523E0,-1.490649690E-1,3.286045510E0
7.850732250E0,4.439007318E-1,-3.246660644E0,5.013095722E-2,3.277249809E0
7.860785250E0,1.228195953E-1,-3.260722613E0,2.994363521E-1,3.276745144E0
7.870838250E0,-1.140967190E-1,-3.205627516E0,6.069361608E-1,3.264573071E0
7.880891250E0,-1.864577669E-1,-3.066625751E0,8.570502256E-1,3.189591680E0
7.890944250E0,-1.855976415E-1,-2.893258438E0,9.930126075E-1,3.064549708E0
7.900997250E0,-3.514533287E-1,-2.855424322E0,1.089963682E0,3.076522116E0
7.911050250E0,-8.652382278E-1,-3.111323037E0,1.213138057E0,3.449735088E0
7.921104250E0,-1.470154322E0,-3.612418893E0,1.368121140E0,4.133119820E0
7.931157250E0,-1.965456757E0,-4.113365061E0,1.518168148E0,4.804958576E0
7.941210250E0,-2.423246380E0,-4.456043766E0,1.605561072E0,5.320364218E0
7.951263250E0,-2.787881087E0,-4.591906160E0,1.646918575E0,5.618738642E0
7.961316250E0,-2.932468697E0,-4.550755503E0,1.661976763E0,5.663118846E0
7.971369250E0,-2.660970780E0,-4.180528519E0,1.622097144E0,5.214286464E0
7.981422250E0,-2.172882639E0,-3.527343952E0,1.544365283E0,4.421384223E0
7.991476250E0,-1.800286363E0,-2.765048295E0,1.413531493E0,3.589511714E0
8.001529250E0,-1.495255249E0,-1.937276686E0,1.174448932E0,2.714435395E0
8.011582250E0,-1.287444035E0,-1.093605913E0,8.627571081E-1,1.896796211E0
8.021635250E0,-1.140985901E0,-2.645669201E-1,5.227441491E-1,1.282616828E0
8.031688250E0,-9.755184692E-1,5.575792287E-1,1.245825309E-1,1.130509481E0
8.041741250E0,-7.517876261E-1,1.429301288E0,-2.796637000E-1,1.638993164E0
8.051794250E0,-4.470114505E-1,2.274622584E0,-7.040882336E-1,2.422698367E0
8.061848250E0,-9.812563419E-2,3.031249804E0,-1.055920754E0,3.211397305E0
8.071901250E0,3.007702482E-1,3.658330938E0,-1.349295298E0,3.910811399E0
8.081954250E0,7.104127282E-1,4.140497019E0,-1.501717153E0,4.461340181E0
8.092007250E0,1.023007216E0,4.449383787E0,-1.495265920E0,4.804100334E0
8.102060250E0,1.155570611E0,4.568364685E0,-1.331120397E0,4.896649962E0
8.112113250E0,1.041562770E0,4.460147634E0,-1.077969435E0,4.705293617E0
8.122167250E0,7.637159461E-1,4.200180134E0,-8.064275175E-1,4.344548370E0
8.132220250E0,3.176096445E-1,3.718143861E0,-5.053556992E-1,3.765747475E0
8.142273250E0,-2.327858412E-1,3.020062619E0,-1.319200556E-1,3.031892209E0
8.152326250E0,-8.698411560E-1,2.163314255E0,2.862796783E-1,2.349150540E0
8.162379250E0,-1.485574014E0,1.242942631E0,7.220527804E-1,2.067171196E0
8.172432250E0,-1.957046122E0,3.594856489E-1,1.110391661E0,2.278646330E0
8.182485250E0,-2.219121251E0,-4.053038460E-1,1.414461201E0,2.662606021E0
8.192539250E0,-2.262363165E0,-1.003831564E0,1.584127518E0,2.938609347E0
8.202592250E0,-2.025734534E0,-1.332889180E0,1.617551665E0,2.914904348E0
8.212645250E0,-1.564459970E0,-1.342710602E0,1.510780338E0,2.555946789E0
8.222698250E0,-1.092662757E0,-1.151544365E0,1.326225693E0,2.068535935E0
8.232751250E0,-6.012773716E-1,-8.298773374E-1,1.053742520E0,1.469899375E0
8.242804250E0,-1.286089236E-1,-4.000312655E-1,7.462719476E-1,8.564386075E-1
8.252857250E0,2.613325328E-1,6.655651689E-2,4.554046901E-1,5.292616502E-1
8.262911250E0,5.900220662E-1,5.846953990E-1,1.829827666E-1,8.505747710E-1
8.272964250E0,8.839177430E-1,1.086116507E0,-4.353062019E-2,1.401019114E0
8.283017250E0,1.073205562E0,1.486857770E0,-2.452931817E-1,1.850049987E0
8.293070250E0,1.176893653E0,1.839070945E0,-4.389598346E-1,2.227093699E0
8.303123250E0,1.245704271E0,2.167932971E0,-6.473909993E-1,2.582794534E0
8.313176250E0,1.261270729E0,2.431452947E0,-8.932558925E-1,2.881088922E0
8.323230250E0,1.202942998E0,2.603400556E0,-1.129367045E0,3.082245324E0
8.333283250E0,1.100291619E0,2.698909269E0,-1.256301911E0,3.173806450E0
8.343336250E0,8.934668308E-1,2.773299885E0,-1.346319211E0,3.209680771E0
8.353389250E0,6.635554808E-1,2.866489300E0,-1.331515815E0,3.229551231E0
8.363442250E0,3.848415148E-1,2.981611913E0,-1.228257934E0,3.247572962E0
8.373495250E0,9.164633453E-2,3.103377255E0,-1.040463055E0,3.274433204E0
8.383548250E0,-2.092578149E-1,3.254572219E0,-7.469753677E-1,3.345743768E0
8.393602250E0,-3.896613747E-1,3.441010690E0,-3.834254654E-1,3.484164985E0
8.403655250E0,-5.147929591E-1,3.613482794E0,8.281996250E-3,3.649977847E0
8.413708250E0,-6.341708833E-1,3.747672008E0,3.543535477E-1,3.817431679E0
8.423761250E0,-6.927330869E-1,3.856261819E0,5.695386851E-1,3.959167673E0
8.433814250E0,-7.151349396E-1,3.907008927E0,6.449190889E-1,4.023935557E0
8.443867250E0,-7.554731262E-1,3.856012436E0,5.951908587E-1,3.974144399E0
8.453920250E0,-8.338918895E-1,3.656252838E0,4.127480824E-1,3.772786964E0
8.463974250E0,-1.003290405E0,3.335607611E0,1.383747970E-1,3.485974377E0
8.474027250E0,-1.211841291E0,3.015636861E0,-2.140946317E-1,3.257063325E0
8.484080250E0,-1.436914655E0,2.758402642E0,-5.747409528E-1,3.162884130E0
8.494133250E0,-1.654586613E0,2.546591055E0,-8.889305609E-1,3.164329377E0
8.504186250E0,-1.850934361E0,2.345835384E0,-1.078092080E0,3.176662430E0
8.514239250E0,-2.066929922E0,2.210026784E0,-1.126838709E0,3.228960075E0
8.524292250E0,-2.252641584E0,2.183243321E0,-1.050854580E0,3.308359239E0
8.534346250E0,-2.315565811E0,2.263675280E0,-8.503627650E-1,3.348012490E0
8.544399250E0,-2.369216938E0,2.325382409E0,-5.518299539E-1,3.365279861E0
8.554452250E0,-2.506934069E0,2.263643413E0,-1.550975414E-1,3.381250534E0
8.564504750E0,-2.651451513E0,2.123095644E0,2.358579683E-1,3.404902234E0
8.574557750E0,-2.684540321E0,2.001642543E0,4.848908830E-1,3.383555641E0
8.584610750E0,-2.648629062E0,1.909868740E0,5.960825591E-1,3.319359716E0
8.594664750E0,-2.648882246E0,1.764968888E0,5.810109222E-1,3.235624518E0
8.604717750E0,-2.753495366E0,1.499509391E0,4.674568248E-1,3.169981234E0
8.614770750E0,-2.910222380E0,1.169924649E0,3.851788992E-1,3.160139359E0
8.624823750E0,-3.033762937E0,8.658875611E-1,2.960861899E-1,3.168776713E0
8.634876750E0,-2.991874654E0,7.053642422E-1,2.057003689E-1,3.080773490E0
8.644929750E0,-2.794281449E0,8.112666732E-1,1.008824502E-1,2.911415412E0
8.654982750E0,-2.384551846E0,1.150236197E0,4.699114859E-2,2.647893310E0
8.665036750E0,-1.803792354E0,1.603824595E0,8.108304709E-2,2.415055827E0
8.675089750E0,-1.231086817E0,2.034793333E0,2.355192684E-1,2.389859406E0
8.685142750E0,-6.613686222E-1,2.426169696E0,3.919365263E-1,2.545058366E0
8.695195750E0,-1.656329083E-1,2.725630167E0,5.294172840E-1,2.781506198E0
8.705248750E0,2.424442720E-1,2.853233370E0,6.500655158E-1,2.936376179E0
8.715301750E0,4.837389815E-1,2.750815002E0,7.530149567E-1,2.892752686E0
8.725354750E0,4.972191525E-1,2.401814873E0,8.287770376E-1,2.588979132E0
8.735408750E0,3.012210685E-1,1.793153345E0,7.610794365E-1,1.971135449E0
8.745461750E0,2.454134881E-2,1.108772129E0,6.074496925E-1,1.264505057E0
8.755514750E0,-3.143252635E-1,4.544169492E-1,3.582460392E-1,6.585099540E-1
8.765567750E0,-6.757393241E-1,-1.755497861E-1,7.632268265E-2,7.023293482E-1
8.775620750E0,-1.092615395E0,-6.713103506E-1,-1.561035548E-1,1.291833699E0
8.785673750E0,-1.502512813E0,-1.039625295E0,-3.395102446E-1,1.858395199E0
8.795727750E0,-1.857087970E0,-1.213073153E0,-4.472086479E-1,2.262811919E0
8.805780750E0,-2.110203411E0,-1.138188155E0,-3.765090863E-1,2.426971323E0
8.815833750E0,-2.219880804E0,-8.363006499E-1,-1.087634736E-1,2.374678727E0
8.825886750E0,-2.188542067E0,-3.042886640E-1,3.222154232E-1,2.232964566E0
8.835939750E0,-2.038296692E0,2.791842283E-1,8.754280975E-1,2.235838006E0
8.845992750E0,-1.955983098E0,7.969259383E-1,1.501448620E0,2.591391285E0
8.856045750E0,-1.825645738E0,1.287142611E0,2.115643076E0,3.076631939E0
8.866099750E0,-1.615073469E0,1.729062307E0,2.663040694E0,3.562289223E0
8.876152750E0,-1.268711895E0,2.115041690E0,3.194690006E0,4.035972678E0
8.886205750E0,-8.624181157E-1,2.383721541E0,3.663534375E0,4.455039563E0
8.896258750E0,-4.236336976E-1,2.500667608E0,4.062312729E0,4.789069712E0
8.906311750E0,-5.413936973E-3,2.456398923E0,4.408779552E0,5.046906193E0
8.916364750E0,3.034354091E-1,2.240567084E0,4.701056135E0,5.216525921E0
8.926418750E0,5.099426937E-1,1.869757133E0,4.896488793E0,5.266083534E0
8.936471750E0,6.183120650E-1,1.388792655E0,5.013906730E0,5.239304873E0
8.946524750E0,6.469587439E-1,8.169552831E-1,5.016874777E0,5.123963708E0
8.956577750E0,6.305461943E-1,2.903484634E-1,4.950998876E0,4.999428028E0
8.966630750E0,6.462506461E-1,-1.543480745E-1,4.800140712E0,4.845906941E0
8.976683750E0,6.912695289E-1,-5.856549270E-1,4.601046528E0,4.689400218E0
8.986736750E0,7.637837738E-1,-9.935528903E-1,4.391701005E0,4.567006756E0
8.996790750E0,8.680448914E-1,-1.347910385E0,4.188338352E0,4.484700937E0
9.006843750E0,9.419004875E-1,-1.670252620E0,3.997728478E0,4.433819270E0
9.016896750E0,1.010241575E0,-1.983175428E0,3.805640427E0,4.408681422E0
9.026949750E0,1.034239132E0,-2.280715236E0,3.625637401E0,4.406422487E0
9.037002750E0,9.715616584E-1,-2.610875637E0,3.476020017E0,4.454584021E0
9.047055750E0,8.750714904E-1,-2.945862914E0,3.354127790E0,4.549069317E0
9.057109750E0,7.639211833E-1,-3.254194489E0,3.236177756E0,4.652548099E0
9.067162750E0,6.172285759E-1,-3.549913327E0,3.127950472E0,4.771470413E0
9.077215750E0,4.707827210E-1,-3.771691493E0,3.021220075E0,4.855415927E0
9.087268750E0,3.232978159E-1,-3.925945135E0,2.945976934E0,4.918978225E0
9.097321750E0,1.942263776E-1,-3.983467996E0,2.945265913E0,4.957855631E0
9.107374750E0,2.050232613E-1,-3.871856051E0,3.005155435E0,4.905533916E0
9.117428750E0,3.449904013E-1,-3.535323940E0,3.098754154E0,4.713789457E0
9.127481750E0,4.418840271E-1,-3.193621428E0,3.275487417E0,4.596008827E0
9.137534750E0,3.060912144E-1,-3.063217994E0,3.556708084E0,4.703952456E0
9.147587750E0,8.634758770E-2,-3.067487046E0,3.902774373E0,4.964733678E0
9.157640750E0,-9.355545044E-2,-3.099897285E0,4.248102744E0,5.259704623E0
9.167693750E0,-1.697487634E-1,-3.086758007E0,4.514436400E0,5.471473809E0
9.177746750E0,-2.796898663E-2,-2.975398369E0,4.687150286E0,5.551860547E0
9.187800750E0,3.421849072E-1,-2.789788449E0,4.694638231E0,5.471712549E0
9.197853750E0,8.619140857E-1,-2.562708321E0,4.578189762E0,5.316972007E0
9.207906750E0,1.315378523E0,-2.378375870E0,4.458648115E0,5.221727249E0
9.217959750E0,1.566936266E0,-2.305978277E0,4.256180087E0,5.088014742E0
9.228012750E0,1.696059744E0,-2.430631706E0,3.898856739E0,4.897517026E0
9.238065750E0,1.619274693E0,-2.765618983E0,3.487836070E0,4.736633756E0
9.248119750E0,1.258966341E0,-3.251319998E0,3.190307518E0,4.725900976E0
9.258172750E0,7.827310914E-1,-3.689275573E0,2.964449458E0,4.797018116E0
9.268225750E0,3.648533928E-1,-4.032994789E0,2.701632317E0,4.867954616E0
9.278278750E0,6.606359661E-2,-4.199098399E0,2.308670189E0,4.792363697E0
9.288331750E0,-2.170194089E-1,-4.094199935E0,1.877425171E0,4.509356473E0
9.298384750E0,-3.829095948E-1,-3.756510074E0,1.375814760E0,4.018812505E0
9.308438750E0,-4.270139730E-1,-3.280300845E0,8.200866133E-1,3.408116286E0
9.318491750E0,-3.068665552E-1,-2.665549442E0,2.251804044E-1,2.692587440E0
9.328544750E0,-3.657316446E-2,-1.930913746E0,-3.127248075E-1,1.956415675E0
9.338597750E0,3.168354732E-1,-1.090988845E0,-8.079822922E-1,1.394086354E0
9.348650750E0,6.968857795E-1,-2.613706858E-1,-1.274191760E0,1.475645305E0
9.358703750E0,1.065847426E0,4.460822914E-1,-1.697328444E0,2.053276404E0
9.368756750E0,1.403804796E0,1.004293933E0,-2.008989862E0,2.648643894E0
9.378810750E0,1.662050584E0,1.372776108E0,-2.210481551E0,3.087580780E0
9.388863750E0,1.773579206E0,1.476832281E0,-2.322143344E0,3.273983276E0
9.398916750E0,1.623870605E0,1.260613940E0,-2.359026411E0,3.129074760E0
9.408969750E0,1.216317335E0,6.595680452E-1,-2.325338847E0,2.705856356E0
9.419022750E0,7.011337817E-1,-1.115505490E-1,-2.283968773E0,2.391766180E0
9.429075750E0,3.546804070E-1,-7.870815660E-1,-2.166130859E0,2.331827284E0
9.439129750E0,-7.181550264E-3,-1.469731860E0,-1.991869799E0,2.475420896E0
9.449182750E0,-3.076898432E-1,-2.044201941E0,-1.857459415E0,2.779134774E0
9.459235750E0,-4.861497885E-1,-2.446784347E0,-1.810734899E0,3.082508091E0
9.469288750E0,-5.243432164E-1,-2.659817124E0,-1.882912783E0,3.300745899E0
9.479341750E0,-4.379242927E-1,-2.680461304E0,-2.051574257E0,3.403763713E0
9.489394750E0,-2.779614294E-1,-2.519525756E0,-2.223481520E0,3.371815929E0
9.499448750E0,-1.000657403E-1,-2.246524227E0,-2.378712232E0,3.273401310E0
9.509501750E0,7.189560950E-2,-1.884530123E0,-2.493515879E0,3.126378768E0
9.519554750E0,1.166338259E-1,-1.454927588E0,-2.576976112E0,2.961625164E0
9.529607750E0,5.829790950E-2,-9.936049305E-1,-2.571666840E0,2.757556842E0
9.539660750E0,-1.407366335E-2,-5.633849292E-1,-2.529549930E0,2.591567768E0
9.549713750E0,-9.373671412E-2,-2.039660116E-1,-2.487414309E0,2.497522503E0
9.559768083E0,-1.953835416E-1,3.321795903E-2,-2.505279307E0,2.513106160E0
9.569821083E0,-3.440951926E-1,1.300727009E-1,-2.560637237E0,2.586925486E0
9.579874083E0,-4.365501970E-1,2.068619183E-1,-2.528107422E0,2.573848299E0
9.589927083E0,-5.062542701E-1,3.726847880E-1,-2.372056346E0,2.453943489E0
9.599980083E0,-6.332283121E-1,5.767360228E-1,-2.104073921E0,2.271723927E0
9.610033083E0,-7.349996853E-1,8.151471779E-1,-1.814170138E0,2.120354393E0
9.620086083E0,-7.657835215E-1,1.089954765E0,-1.576926234E0,2.064248565E0
9.630140083E0,-7.509397799E-1,1.371974893E0,-1.443445410E0,2.128323357E0
9.640193083E0,-7.468081373E-1,1.606376320E0,-1.331011932E0,2.215797833E0
9.650246083E0,-7.896653044E-1,1.771901494E0,-1.224239435E0,2.293898077E0
9.660299083E0,-8.248398149E-1,1.903730333E0,-1.080156440E0,2.339078416E0
9.670352083E0,-8.072379416E-1,2.036375443E0,-8.879853585E-1,2.363678497E0
9.680405083E0,-7.691515177E-1,2.131229560E0,-6.901641127E-1,2.368556522E0
9.690459083E0,-6.864537621E-1,2.241530997E0,-5.394255245E-1,2.405547729E0
9.700512083E0,-6.006347626E-1,2.346082868E0,-4.132747704E-1,2.456758632E0
9.710565083E0,-5.110431397E-1,2.446784785E0,-3.234084745E-1,2.520419393E0
9.720618083E0,-4.349012822E-1,2.499692000E0,-2.651764923E-1,2.551062091E0
9.730671083E0,-4.084361994E-1,2.514501536E0,-2.333261240E-1,2.558120244E0
9.740724083E0,-4.370109576E-1,2.501477740E0,-2.508651397E-1,2.551725451E0
9.750778083E0,-5.397360116E-1,2.435745096E0,-2.978039557E-1,2.512539817E0
9.760831083E0,-7.265516281E-1,2.327810757E0,-4.112658133E-1,2.472998132E0
9.770884083E0,-9.175480038E-1,2.205919700E0,-5.322045055E-1,2.447696406E0
9.780937083E0,-1.067969965E0,2.066901563E0,-6.559915227E-1,2.417222951E0
9.790990083E0,-1.244164699E0,1.916824587E0,-6.981160337E-1,2.389461926E0
9.801043083E0,-1.443933068E0,1.782465804E0,-6.553065214E-1,2.385697735E0
9.811097083E0,-1.710494181E0,1.693751264E0,-5.645059866E-1,2.472498877E0
9.821150083E0,-2.052110154E0,1.576529500E0,-4.223619282E-1,2.622020394E0
9.831203083E0,-2.474241117E0,1.381024629E0,-2.202597897E-1,2.842114091E0
9.841256083E0,-2.867245930E0,1.187156978E0,4.088957906E-3,3.103297864E0
9.851309083E0,-3.180412860E0,1.127635831E0,2.569564766E-1,3.384171266E0
9.861362083E0,-3.355174441E0,1.248388436E0,4.776742494E-1,3.611625937E0
9.871416083E0,-3.330105089E0,1.555837081E0,6.491820015E-1,3.732514728E0
9.881469083E0,-3.122817786E0,1.931800184E0,7.422321063E-1,3.746298356E0
9.891522083E0,-2.874083079E0,2.270066287E0,8.419891137E-1,3.757991506E0
9.901575083E0,-2.715419467E0,2.517404386E0,1.042801795E0,3.846851090E0
9.911628083E0,-2.605649688E0,2.677491210E0,1.302267897E0,3.956547883E0
9.921681083E0,-2.494704033E0,2.806113875E0,1.545041367E0,4.060169469E0
9.931734083E0,-2.372784909E0,2.865964805E0,1.743386085E0,4.108924133E0
9.941788083E0,-2.234706420E0,2.847572096E0,1.874347782E0,4.076243274E0
9.951841083E0,-2.012272489E0,2.768750752E0,1.976726096E0,3.952552005E0
9.961894083E0,-1.725643147E0,2.630431065E0,2.058379100E0,3.759512785E0
9.971947083E0,-1.295581021E0,2.452137473E0,2.112678391E0,3.486390447E0
9.982000083E0,-7.465461820E-1,2.344573263E0,2.056093716E0,3.206536505E0
9.992053083E0,-1.764069879E-1,2.285552345E0,1.861068170E0,2.952701082E0
1.000210708E1,3.650855273E-1,2.205222420E0,1.543513489E0,2.716381279E0
1.001216008E1,7.597100186E-1,2.025105666E0,1.207165858E0,2.476986410E0
1.002221308E1,9.342382962E-1,1.684385194E0,8.668438733E-1,2.112196244E0
1.003226608E1,8.681121343E-1,1.224390585E0,4.884423356E-1,1.578393772E0
1.004231908E1,6.205345917E-1,7.526821040E-1,1.307301472E-1,9.842174051E-1
1.005237208E1,2.763382423E-1,3.310674499E-1,-2.239600539E-1,4.859285815E-1
1.006242608E1,-7.709612310E-2,3.183370382E-2,-6.061137499E-1,6.118260167E-1
1.007247908E1,-3.652018869E-1,-1.156851152E-1,-9.776417394E-1,1.050018493E0
1.008253208E1,-5.973152983E-1,-1.407087131E-1,-1.297493060E0,1.435295352E0
1.009258508E1,-7.523308325E-1,-3.714399889E-2,-1.477955531E0,1.658835106E0
1.010263808E1,-7.922638071E-1,1.951785967E-1,-1.464721235E0,1.676658857E0
1.011269108E1,-8.486859298E-1,4.252272101E-1,-1.236891494E0,1.559162132E0
1.012274508E1,-9.953826302E-1,6.253543054E-1,-8.447174245E-1,1.447550384E0
1.013279808E1,-1.247345000E0,7.228263670E-1,-3.460651195E-1,1.482601960E0
1.014285108E1,-1.572650165E0,7.051975965E-1,2.961182034E-1,1.748776195E0
1.015290408E1,-1.983351576E0,5.745187587E-1,1.024160141E0,2.304920665E0
1.016295708E1,-2.266131696E0,4.047518688E-1,1.722806517E0,2.875280722E0
1.017301008E1,-2.267423345E0,3.063734888E-1,2.415143309E0,3.326858961E0
1.018306308E1,-1.970599383E0,3.212765796E-1,2.989078515E0,3.594589120E0
1.019311708E1,-1.427043970E0,4.630537252E-1,3.354233040E0,3.674473095E0
1.020317008E1,-7.947120363E-1,6.502421017E-1,3.583618725E0,3.727828480E0
1.021322308E1,-2.268345451E-1,7.574738972E-1,3.714119223E0,3.797354634E0
1.022327608E1,2.586960232E-1,7.571658951E-1,3.691040263E0,3.776771378E0
1.023332908E1,7.222007149E-1,6.758270323E-1,3.558404362E0,3.693312558E0
1.024338208E1,1.004954522E0,4.813532444E-1,3.268326332E0,3.453055393E0
1.025343608E1,1.082380428E0,1.278192571E-1,2.815838964E0,3.019409582E0
1.026348908E1,1.047887703E0,-3.306401646E-1,2.276198262E0,2.527542301E0
1.027354208E1,1.044998594E0,-7.899118377E-1,1.784145125E0,2.213403849E0
1.028359508E1,1.034763043E0,-1.191292933E0,1.295065296E0,2.041349438E0
1.029364808E1,1.006110517E0,-1.527051092E0,8.580367240E-1,2.019992681E0
1.030370108E1,9.388727993E-1,-1.868577311E0,4.797534462E-1,2.145513148E0
1.031375508E1,8.601692766E-1,-2.180562957E0,1.310758638E-1,2.347749321E0
1.032380808E1,7.829550397E-1,-2.446994554E0,-1.448502228E-1,2.573282443E0
1.033386108E1,7.234566969E-1,-2.660469673E0,-3.324341635E-1,2.777048964E0
1.034391408E1,6.073543829E-1,-2.838153401E0,-3.962283826E-1,2.929332860E0
1.035396708E1,4.570704156E-1,-2.991490199E0,-2.443014208E-1,3.036051739E0
1.036402008E1,3.859384525E-1,-3.125512767E0,8.966398224E-2,3.150526651E0
1.037407408E1,3.938345325E-1,-3.195693096E0,4.627357098E-1,3.252950098E0
1.038412708E1,4.750096732E-1,-3.096745344E0,8.195879920E-1,3.238393180E0
1.039418008E1,5.687914109E-1,-2.906609093E0,1.139819309E0,3.173497778E0
1.040423308E1,7.185871357E-1,-2.626324273E0,1.380862076E0,3.052986526E0
1.041428608E1,8.887340945E-1,-2.282381108E0,1.484746048E0,2.864189700E0
1.042433908E1,1.041623581E0,-1.993157503E0,1.544687610E0,2.728317490E0
1.043439208E1,1.116035247E0,-1.761727923E0,1.559090472E0,2.603840058E0
1.044444608E1,1.124380978E0,-1.627568091E0,1.586185884E0,2.535585955E0
1.045449908E1,1.074848630E0,-1.617798710E0,1.605483450E0,2.519950268E0
1.046455208E1,9.610033411E-1,-1.761444918E0,1.671935302E0,2.611816087E0
1.047460508E1,7.943383992E-1,-2.102302068E0,1.758996250E0,2.853894758E0
1.048465808E1,5.676880413E-1,-2.600158567E0,1.724579393E0,3.171319657E0
1.049471108E1,6.090459824E-2,-3.196255598E0,1.503469418E0,3.532729753E0
1.050476508E1,-1.010074929E0,-3.996082487E0,1.318762746E0,4.327593070E0
1.051481808E1,-2.319537240E0,-5.032989119E0,1.576968334E0,5.761775907E0
1.052487108E1,-3.321917818E0,-5.986801554E0,2.197693545E0,7.190743199E0
1.053492408E1,-3.378662707E0,-6.402316977E0,2.783518479E0,7.755836479E0
1.054497708E1,-2.409634647E0,-6.150599021E0,3.066413205E0,7.282794614E0
1.055503008E1,-1.195874299E0,-5.505210840E0,3.205354743E0,6.481647997E0
1.056508783E1,-4.002360642E-2,-4.880931691E0,3.079951263E0,5.771585211E0
1.057514083E1,1.297688357E0,-4.244029281E0,2.760676916E0,5.226577910E0
1.058519383E1,2.346697556E0,-3.745276111E0,2.267334468E0,4.967382425E0
1.059524683E1,2.939718075E0,-3.354545866E0,1.607501324E0,4.741200358E0
1.060529983E1,3.088258987E0,-3.084369127E0,7.794583317E-1,4.433760455E0
1.061535283E1,2.822963796E0,-2.842858070E0,-1.665013660E-1,4.009824099E0
1.062540583E1,2.416323861E0,-2.455549615E0,-1.069800144E0,3.607328272E0
1.063545983E1,2.073463601E0,-1.956728033E0,-1.886023356E0,3.418350479E0
1.064551283E1,1.802983684E0,-1.367958295E0,-2.612375740E0,3.456380631E0
1.065556583E1,1.541070523E0,-7.607921190E-1,-3.168771054E0,3.604831895E0
1.066561883E1,1.292842770E0,-2.219551350E-1,-3.476103632E0,3.715373867E0
1.067567183E1,1.154747908E0,1.518747845E-1,-3.428719550E0,3.621136070E0
1.068572483E1,1.143738186E0,3.420598499E-1,-3.118129488E0,3.338843136E0
1.069577883E1,1.041795489E0,3.161804754E-1,-2.521055095E0,2.746092993E0
1.070583183E1,8.043944407E-1,1.475043837E-1,-1.773489159E0,1.952964863E0
1.071588483E1,6.117725390E-1,-3.032135803E-2,-8.974984860E-1,1.086594937E0
1.072593783E1,4.148675519E-1,-2.914416369E-1,6.723230883E-2,5.114425644E-1
1.073599083E1,2.216884106E-1,-6.526790750E-1,9.305481184E-1,1.158039519E0
1.074604383E1,7.381232679E-2,-1.064354266E0,1.653019413E0,1.967427621E0
1.075609783E1,-1.273342305E-1,-1.540774069E0,2.127267925E0,2.629727659E0
1.076615083E1,-4.376500583E-1,-2.087780508E0,2.365261297E0,3.185094351E0
1.077620383E1,-7.360831743E-1,-2.566514273E0,2.364665904E0,3.566575219E0
1.078625683E1,-1.009758010E0,-2.878821078E0,2.096539053E0,3.701715553E0
1.079630983E1,-1.209628705E0,-3.044988714E0,1.645625170E0,3.666502431E0
1.080636283E1,-1.275903386E0,-2.988328902E0,1.099333992E0,3.430244059E0
1.081641683E1,-1.190101343E0,-2.660781330E0,5.219565292E-1,2.961171577E0
1.082646983E1,-1.091244807E0,-2.128749902E0,-1.613202944E-2,2.392206433E0
1.083652283E1,-1.124435357E0,-1.507298467E0,-4.655646658E-1,1.937280052E0
1.084657583E1,-1.219622181E0,-8.970703237E-1,-8.250175703E-1,1.724200517E0
1.085662883E1,-1.318520232E0,-2.787901260E-1,-1.097268609E0,1.737877423E0
1.086668183E1,-1.484819139E0,3.539151527E-1,-1.275218677E0,1.989001379E0
1.087673483E1,-1.697963013E0,9.413175201E-1,-1.385218398E0,2.384950121E0
1.088678883E1,-1.918945665E0,1.456336474E0,-1.372925066E0,2.772758847E0
1.089684183E1,-2.063065497E0,1.887613360E0,-1.248611361E0,3.062409798E0
1.090689483E1,-2.140713598E0,2.225483022E0,-1.066451297E0,3.266917164E0
1.091694783E1,-2.177116023E0,2.499598445E0,-8.845276076E-1,3.430774789E0
1.092700083E1,-2.180132602E0,2.762675787E0,-7.158010105E-1,3.591340523E0
1.093705383E1,-2.148914902E0,3.038944740E0,-5.302705389E-1,3.759548807E0
1.094710783E1,-2.080607729E0,3.323699464E0,-3.460972792E-1,3.936456525E0
1.095716083E1,-1.971170656E0,3.662383643E0,-7.642310858E-2,4.159856752E0
1.096721383E1,-1.838051775E0,4.059508696E0,3.090906899E-1,4.466943277E0
1.097726683E1,-1.731727175E0,4.379592883E0,7.515590000E-1,4.769125052E0
1.098731983E1,-1.685195033E0,4.596498271E0,1.086682225E0,5.014833687E0
1.099737283E1,-1.693585787E0,4.796446149E0,1.170300917E0,5.219552923E0
1.100742683E1,-1.764183900E0,5.009193875E0,9.537927009E-1,5.395747272E0
1.101747983E1,-1.799602824E0,5.232537632E0,5.515427095E-1,5.560775104E0
1.102753283E1,-1.839891309E0,5.440291543E0,4.057982281E-2,5.743136671E0
1.103758583E1,-1.798504132E0,5.602448866E0,-5.214226784E-1,5.907108601E0
1.104763883E1,-1.617973688E0,5.784929357E0,-1.057439130E0,6.099297012E0
1.105769183E1,-1.439630687E0,5.960718294E0,-1.444951799E0,6.300046413E0
1.106774583E1,-1.303182401E0,6.068700580E0,-1.657294020E0,6.424487106E0
1.107779883E1,-1.165146012E0,6.117326610E0,-1.704199653E0,6.456279621E0
1.108785183E1,-1.067794549E0,6.087781799E0,-1.598101341E0,6.383979975E0
1.109790483E1,-1.060060437E0,5.968877499E0,-1.381527489E0,6.217704153E0
1.110795783E1,-1.142040154E0,5.738936328E0,-1.059588128E0,5.946627018E0
1.111801083E1,-1.298744949E0,5.387580648E0,-6.504471928E-1,5.579950289E0
1.112806483E1,-1.464119411E0,4.955414109E0,-1.633010387E-1,5.169762264E0
1.113811783E1,-1.597884994E0,4.554729855E0,2.928246130E-1,4.835757103E0
1.114817083E1,-1.683429759E0,4.242627119E0,7.111543013E-1,4.619476275E0
1.115822383E1,-1.731979775E0,3.978336772E0,1.057676527E0,4.466049378E0
1.116827683E1,-1.690744625E0,3.783510762E0,1.361945018E0,4.362162916E0
1.117832983E1,-1.628290515E0,3.618943801E0,1.658876131E0,4.301157316E0
1.118838383E1,-1.562687679E0,3.493782688E0,1.994869421E0,4.316018334E0
1.119843683E1,-1.506327537E0,3.422716214E0,2.401238630E0,4.444092246E0
1.120848983E1,-1.384046470E0,3.396599333E0,2.831630539E0,4.633638222E0
1.121854283E1,-1.277012018E0,3.427454505E0,3.287224533E0,4.917728054E0
1.122859583E1,-1.296468628E0,3.356431008E0,3.742324437E0,5.191478807E0
1.123864883E1,-1.453060572E0,3.084430230E0,4.146451238E0,5.368254161E0
1.124870283E1,-1.730367697E0,2.665032840E0,4.438834825E0,5.458921781E0
1.125875583E1,-2.036440201E0,2.178366450E0,4.551207200E0,5.441126360E0
1.126880883E1,-2.315116745E0,1.757098244E0,4.499838241E0,5.356837124E0
1.127886183E1,-2.364518116E0,1.476238350E0,4.251057342E0,5.083474610E0
1.128891483E1,-2.357761658E0,1.293115542E0,3.821527312E0,4.672821293E0
1.129896783E1,-2.369636768E0,1.196597892E0,3.425135207E0,4.333425448E0
1.130902183E1,-2.463522586E0,1.060471788E0,3.148373042E0,4.135915468E0
1.131907483E1,-2.650293764E0,8.690789714E-1,3.040876660E0,4.126292059E0
1.132912783E1,-2.787562999E0,7.398677847E-1,3.023791096E0,4.178662992E0
1.133918083E1,-2.857571712E0,6.813962129E-1,3.045681902E0,4.231571237E0
1.134923383E1,-2.795093628E0,6.716939279E-1,3.112084637E0,4.236601457E0
1.135928683E1,-2.488545746E0,7.736974356E-1,3.181746610E0,4.112782408E0
1.136934083E1,-1.937041628E0,9.674077964E-1,3.324166657E0,3.967126425E0
1.137939383E1,-1.398034179E0,1.167999453E0,3.606087821E0,4.040122728E0
1.138944683E1,-1.085542603E0,1.247376283E0,4.038587067E0,4.364004563E0
1.139949983E1,-8.549822116E-1,1.128397431E0,4.478671321E0,4.697102526E0
1.140955283E1,-5.884795707E-1,9.353498518E-1,4.889370393E0,5.012696917E0
1.141960583E1,-3.957442331E-1,6.664944376E-1,5.227808989E0,5.284961226E0
1.142965983E1,-2.351966482E-1,3.272215900E-1,5.489720981E0,5.504491609E0
1.143971283E1,-2.033334160E-1,-1.001671895E-1,5.695473974E0,5.699982608E0
1.144976583E1,-3.021975535E-1,-5.865461889E-1,5.875635459E0,5.912567280E0
1.145981883E1,-4.333728200E-1,-1.117740296E0,6.109669681E0,6.226172097E0
1.146987183E1,-5.170722038E-1,-1.617877647E0,6.302913142E0,6.527756569E0
1.147992483E1,-6.388954335E-1,-2.075781730E0,6.449644926E0,6.805510769E0
1.148997883E1,-7.241700572E-1,-2.486851223E0,6.559319980E0,7.052200357E0
1.150003183E1,-7.460053146E-1,-2.827750035E0,6.611622155E0,7.229539522E0
1.151008483E1,-7.117219198E-1,-3.078515772E0,6.614007819E0,7.330000469E0
1.152013783E1,-5.965522367E-1,-3.198431640E0,6.610388392E0,7.367704814E0
1.153019083E1,-4.123772228E-1,-3.182935349E0,6.590485640E0,7.330459288E0
1.154024383E1,-2.363684303E-1,-3.044869723E0,6.578483645E0,7.252830394E0
1.155029783E1,-5.998717010E-2,-2.850255968E0,6.621872324E0,7.209490316E0
1.156035083E1,1.525088328E-1,-2.591375465E0,6.726103621E0,7.209643241E0
1.157040383E1,4.404187149E-1,-2.223295578E0,6.798338953E0,7.166200137E0
1.158045683E1,7.159424400E-1,-1.832886199E0,6.823106589E0,7.101185037E0
1.159050983E1,9.442019516E-1,-1.449283709E0,6.814690107E0,7.030785294E0
1.160056283E1,1.168839698E0,-1.122894762E0,6.805941503E0,6.996278913E0
1.161061683E1,1.406645374E0,-9.055419159E-1,6.754836838E0,6.958913570E0
1.162066983E1,1.636014102E0,-7.734372345E-1,6.614449868E0,6.857528298E0
1.163072283E1,1.784405326E0,-7.586671677E-1,6.428502563E0,6.714560555E0
1.164077583E1,1.948834292E0,-8.449492666E-1,6.199470634E0,6.553268689E0
1.165082883E1,2.096905673E0,-9.984020593E-1,5.940063590E0,6.377944459E0
1.166088183E1,2.141979520E0,-1.215288810E0,5.700388559E0,6.209624214E0
1.167093583E1,2.159409485E0,-1.417256754E0,5.402079989E0,5.987832182E0
1.168098883E1,2.210849195E0,-1.557199775E0,5.142794566E0,5.810426942E0
1.169104183E1,2.276736791E0,-1.650158078E0,4.895218778E0,5.645327181E0
1.170109483E1,2.285947909E0,-1.713856330E0,4.696369007E0,5.497157739E0
1.171114783E1,2.264534821E0,-1.782796610E0,4.571392958E0,5.404083205E0
1.172120083E1,2.242751604E0,-1.873864071E0,4.479154301E0,5.348282393E0
1.173125483E1,2.159511226E0,-2.018809384E0,4.371502383E0,5.277225895E0
1.174130783E1,2.068242622E0,-2.162699421E0,4.235145314E0,5.185687241E0
1.175136083E1,1.983760881E0,-2.289818328E0,4.131197022E0,5.123022940E0
1.176141383E1,1.956781828E0,-2.392378782E0,4.028597099E0,5.077604351E0
1.177146683E1,1.933947281E0,-2.449298065E0,3.898050408E0,4.993396647E0
1.178151983E1,1.870725431E0,-2.507784547E0,3.708067355E0,4.851634825E0
1.179157383E1,1.737397220E0,-2.534762138E0,3.491854277E0,4.651517439E0
1.180162683E1,1.531793915E0,-2.509222377E0,3.240768405E0,4.375519328E0
1.181167983E1,1.275446718E0,-2.426419079E0,2.964095702E0,4.037342840E0
1.182173283E1,9.859118950E-1,-2.291502326E0,2.687642854E0,3.666937317E0
1.183178583E1,6.660136503E-1,-2.193622275E0,2.440858194E0,3.348632794E0
1.184183883E1,2.002495944E-1,-2.143022663E0,2.276180720E0,3.132673731E0
1.185189283E1,-8.492092556E-1,-2.330677647E0,2.174087166E0,3.298464743E0
1.186194583E1,-2.329007975E0,-2.919187331E0,2.424667838E0,4.452521415E0
1.187199883E1,-3.913122191E0,-3.647289641E0,3.229172207E0,6.248423813E0
1.188205183E1,-5.138559428E0,-4.029304904E0,4.179878601E0,7.753159106E0
1.189210483E1,-5.318732607E0,-3.586018130E0,5.046316093E0,8.161724615E0
1.190215783E1,-4.633484541E0,-2.337369055E0,5.440468714E0,7.518721495E0
1.191221183E1,-3.875718722E0,-8.263713469E-1,5.414688925E0,6.709913663E0
1.192226483E1,-3.211950402E0,6.411188373E-1,5.349474928E0,6.272522679E0
1.193231783E1,-2.434474204E0,2.056723169E0,5.055790336E0,5.976436293E0
1.194237083E1,-1.660806881E0,3.408424450E0,4.578769221E0,5.944809863E0
1.195242383E1,-1.250995417E0,4.449615629E0,3.963780128E0,6.088975422E0
1.196247683E1,-1.228665485E0,5.201062070E0,3.248144082E0,6.253887232E0
1.197253083E1,-1.422641017E0,5.649720097E0,2.357161587E0,6.284859217E0
1.198258383E1,-1.696474897E0,5.843106229E0,1.272320212E0,6.216004843E0
1.199263683E1,-1.889719527E0,5.916415111E0,2.744566083E-2,6.210938811E0
1.200268983E1,-1.869929041E0,5.793151127E0,-1.260524039E0,6.216603209E0
1.201274283E1,-1.647767006E0,5.448746617E0,-2.420925620E0,6.185859411E0
1.202279583E1,-1.399586030E0,4.721094835E0,-3.024079363E0,5.778635954E0
1.203284983E1,-5.562678444E-1,4.377253119E0,-3.816204007E0,5.833797374E0
1.204290283E1,-1.829359889E-2,3.675354230E0,-4.127202204E0,5.526514399E0
1.205295583E1,-2.169433951E-2,2.573815107E0,-3.663571213E0,4.477359588E0
1.206300883E1,-5.796912056E-1,1.517435492E0,-2.780495469E0,3.220218536E0
1.207306183E1,-1.303986393E0,5.925256978E-1,-1.695196842E0,2.219270048E0
1.208311483E1,-1.951517580E0,-3.948444928E-1,-4.900944664E-1,2.050491556E0
1.209316883E1,-2.453813869E0,-1.473430517E0,7.431591824E-1,2.957107635E0
1.210322183E1,-2.679118783E0,-2.541478250E0,1.987018949E0,4.193451258E0
1.211327483E1,-2.756296182E0,-3.513421439E0,3.026467951E0,5.394516393E0
1.212332783E1,-2.656233366E0,-4.397483901E0,3.901083943E0,6.450728353E0
1.213338083E1,-2.384070035E0,-5.140185539E0,4.587735341E0,7.290583849E0
1.214343383E1,-1.934719698E0,-5.728914201E0,5.065158745E0,7.887929471E0
1.215348783E1,-1.320889524E0,-6.194960092E0,5.316569138E0,8.269715054E0
1.216354083E1,-6.716088510E-1,-6.556301063E0,5.287098001E0,8.449233536E0
1.217359383E1,-7.075072467E-2,-6.830527291E0,5.126774365E0,8.540780065E0
1.218364683E1,5.318118650E-1,-6.962762657E0,4.797775514E0,8.472398572E0
1.219369983E1,1.151879849E0,-6.924929418E0,4.357050405E0,8.262285571E0
1.220375283E1,1.857669184E0,-6.682980990E0,3.644632666E0,7.835592956E0
1.221380683E1,2.449541309E0,-6.565624448E0,2.700293305E0,7.509944138E0
1.222385983E1,2.774347122E0,-6.590569255E0,1.878898085E0,7.393433780E0
1.223391283E1,2.732102743E0,-6.730785486E0,1.104817218E0,7.347685332E0
1.224396583E1,2.364595299E0,-6.984690886E0,3.933569612E-1,7.384574964E0
1.225401883E1,1.788077962E0,-7.251032728E0,-2.614588326E-1,7.472821364E0
1.226407183E1,1.260791842E0,-7.390373046E0,-8.829244472E-1,7.548957902E0
1.227412583E1,9.228800797E-1,-7.300345806E0,-1.480324092E0,7.505872097E0
1.228417883E1,7.491973096E-1,-6.994340546E0,-1.999605227E0,7.313037491E0
1.229423183E1,6.986136317E-1,-6.539162289E0,-2.361469670E0,6.987506240E0
1.230428483E1,7.022915304E-1,-6.065763524E0,-2.572024982E0,6.625859418E0
1.231433783E1,6.508553284E-1,-5.702977121E0,-2.590560363E0,6.297504561E0
1.232439083E1,4.811404788E-1,-5.477975678E0,-2.371551147E0,5.988653316E0
1.233444483E1,3.374667889E-1,-5.255454624E0,-2.051022280E0,5.651582038E0
1.234449783E1,2.290477163E-1,-5.015429345E0,-1.682175531E0,5.294970150E0
1.235455083E1,1.262022096E-1,-4.774821391E0,-1.263176336E0,4.940694362E0
1.236460383E1,4.684847653E-2,-4.539423891E0,-8.923299859E-1,4.626534000E0
1.237465683E1,-9.021844447E-2,-4.274838260E0,-6.376055378E-1,4.323068625E0
1.238470983E1,-3.680401254E-1,-4.059975304E0,-4.300708973E-1,4.099245538E0
1.239476383E1,-6.381768107E-1,-3.762984112E0,-4.543574537E-1,3.843664887E0
1.240481683E1,-8.225213939E-1,-3.307990335E0,-7.245530498E-1,3.484869957E0
1.241486983E1,-9.449433786E-1,-2.633044770E0,-1.199827748E0,3.043916782E0
1.242492283E1,-1.177849672E0,-1.865008609E0,-1.755075692E0,2.818843317E0
1.243497583E1,-1.520057384E0,-1.080172593E0,-2.207150685E0,2.889439639E0
1.244502883E1,-1.845647893E0,-2.840721352E-1,-2.509306870E0,3.127896112E0
1.245508283E1,-1.926972138E0,5.228447212E-1,-2.619530393E0,3.293710324E0
1.246513583E1,-1.781250168E0,1.235216267E0,-2.612489176E0,3.394659199E0
1.247518883E1,-1.550963427E0,1.839122839E0,-2.438770884E0,3.425706320E0
1.248524183E1,-1.326856023E0,2.310070744E0,-2.208290600E0,3.460277607E0
1.249529483E1,-1.193806724E0,2.647600244E0,-1.961803563E0,3.504801673E0
1.250534783E1,-1.133572217E0,2.891587596E0,-1.606012623E0,3.496504160E0
1.251540083E1,-1.094798160E0,3.055816880E0,-1.245563792E0,3.476784287E0
1.252545483E1,-1.039129159E0,3.229942577E0,-9.956977952E-1,3.536061730E0
1.253550783E1,-1.047884780E0,3.436167149E0,-8.029601187E-1,3.681039546E0
1.254556083E1,-1.064868602E0,3.680778107E0,-6.673240113E-1,3.889395062E0
1.255561383E1,-1.006063154E0,4.034991906E0,-6.463080950E-1,4.208448278E0
1.256566271E1,-9.964029694E-1,4.480709952E0,-6.767241414E-1,4.639777594E0
1.257571671E1,-9.908095229E-1,5.061493126E0,-6.672936058E-1,5.200547753E0
1.258576971E1,-8.669684190E-1,5.483104271E0,-4.429400343E-1,5.568865465E0
1.259582271E1,-5.986975801E-1,5.667297996E0,4.861915961E-2,5.699041077E0
1.260587571E1,-5.042065752E-1,5.614329239E0,7.562614770E-1,5.687428988E0
1.261592871E1,-6.738880956E-1,5.312445681E0,1.677405226E0,5.611585567E0
1.262598171E1,-9.626247740E-1,4.751096899E0,2.687311901E0,5.542672050E0
1.263603471E1,-1.503241961E0,4.006563913E0,3.702113135E0,5.658439047E0
1.264608871E1,-1.799311633E0,3.370221958E0,4.579088479E0,5.963553445E0
1.265614171E1,-1.816162723E0,2.762167664E0,5.362618300E0,6.299658107E0
1.266619471E1,-1.774382613E0,2.209066964E0,6.005353015E0,6.640231573E0
1.267624771E1,-1.699856341E0,1.771700788E0,6.387940428E0,6.843553038E0
1.268630071E1,-1.690145286E0,1.492807020E0,6.479266335E0,6.860463259E0
1.269635471E1,-1.647758819E0,1.463373013E0,6.278189945E0,6.653738700E0
1.270640771E1,-1.498590501E0,1.623054918E0,5.901004774E0,6.300947397E0
1.271646071E1,-1.285596900E0,2.055859389E0,5.418021253E0,5.935846318E0
1.272651371E1,-9.934273213E-1,2.710387938E0,4.793847939E0,5.595898380E0
1.273656671E1,-7.357937372E-1,3.291217012E0,4.182836123E0,5.373045679E0
1.274661971E1,-4.544146103E-1,3.748064649E0,3.645902097E0,5.248531542E0
1.275667271E1,-7.252418518E-2,4.090386965E0,3.040826958E0,5.097367347E0
1.276672671E1,2.938524073E-1,4.331564146E0,2.441530623E0,4.980950609E0
1.277677971E1,5.382432175E-1,4.503021466E0,1.909867278E0,4.920823214E0
1.278683271E1,5.941595560E-1,4.606964202E0,1.495654468E0,4.879972031E0
1.279688571E1,4.736601359E-1,4.561066191E0,1.316263792E0,4.770768186E0
1.280693871E1,1.772519106E-1,4.364221722E0,1.332703677E0,4.566612374E0
1.281699171E1,-2.310340154E-1,4.017721277E0,1.554967600E0,4.314323263E0
1.282704571E1,-7.102928603E-1,3.584789045E0,1.850263100E0,4.096181391E0
1.283709871E1,-1.235515498E0,3.142395726E0,2.183148011E0,4.020856212E0
1.284715171E1,-1.759504958E0,2.748569964E0,2.480820404E0,4.099385859E0
1.285720471E1,-2.183628067E0,2.500009797E0,2.661553747E0,4.254662016E0
1.286725771E1,-2.430984001E0,2.422281005E0,2.701269205E0,4.367377222E0
1.287731071E1,-2.558832786E0,2.457340325E0,2.681809087E0,4.447274073E0
1.288736471E1,-2.679419914E0,2.524506707E0,2.676777558E0,4.551655005E0
1.289741771E1,-2.837456705E0,2.519015879E0,2.688019999E0,4.649951942E0
1.290747071E1,-3.038953511E0,2.390309161E0,2.684084238E0,4.706710584E0
1.291752371E1,-3.220285023E0,2.193681331E0,2.636068365E0,4.704394737E0
1.292757671E1,-3.353050733E0,1.970368272E0,2.547940593E0,4.649440999E0
1.293762971E1,-3.355594271E0,1.667145555E0,2.355878854E0,4.426008630E0
1.294768371E1,-3.123477352E0,1.395528209E0,2.015759038E0,3.970754871E0
1.295773671E1,-2.687707758E0,1.163764315E0,1.592156330E0,3.333628976E0
1.296778971E1,-2.227903184E0,9.456144927E-1,1.238648875E0,2.718821510E0
1.297784271E1,-1.849218203E0,7.333387837E-1,9.980365352E-1,2.225639382E0
1.298789571E1,-1.578676305E0,4.739362706E-1,8.811727676E-1,1.869037162E0
1.299794871E1,-1.380770860E0,1.680332635E-1,7.544557106E-1,1.582392734E0
1.300800271E1,-1.195269697E0,-1.274769757E-1,6.321892619E-1,1.358154370E0
1.301805571E1,-1.039853629E0,-4.368122619E-1,5.104728900E-1,1.238015789E0
1.302810871E1,-9.279098547E-1,-7.781722366E-1,3.902960899E-1,1.272359920E0
1.303816171E1,-8.378446072E-1,-1.112187268E0,2.710494357E-1,1.418595045E0
1.304821471E1,-7.096134138E-1,-1.442345841E0,1.749258882E-1,1.616945203E0
1.305826871E1,-5.697597098E-1,-1.797219206E0,7.719026327E-2,1.886950275E0
1.306832171E1,-3.921826941E-1,-2.130899046E0,-9.445007443E-3,2.166708845E0
1.307837471E1,-1.886516422E-1,-2.433729268E0,-1.064456373E-1,2.443349805E0
1.308842771E1,2.604700685E-2,-2.683741299E0,-2.069540119E-1,2.691835019E0
1.309848071E1,2.372460973E-1,-2.894931034E0,-3.455894485E-1,2.925122813E0
1.310853371E1,4.058885676E-1,-3.056115966E0,-4.700638059E-1,3.118581457E0
1.311858771E1,6.264993364E-1,-3.178406680E0,-6.078158744E-1,3.296090196E0
1.312864071E1,8.783202034E-1,-3.268077825E0,-7.317600355E-1,3.462261082E0
1.313869371E1,1.049748872E0,-3.392293151E0,-7.665272874E-1,3.632793636E0
1.314874671E1,1.165796222E0,-3.526522711E0,-7.628552359E-1,3.791753074E0
1.315879971E1,1.283400101E0,-3.674576257E0,-7.231029403E-1,3.958851393E0
1.316885271E1,1.336959427E0,-3.804694347E0,-6.633661772E-1,4.086956603E0
1.317890671E1,1.340492899E0,-3.845072880E0,-6.184731558E-1,4.118739578E0
1.318895971E1,1.340618030E0,-3.785129564E0,-5.298799449E-1,4.050337674E0
1.319901271E1,1.393249987E0,-3.719355989E0,-3.855975598E-1,3.990418522E0
1.320906571E1,1.520411140E0,-3.724806764E0,-1.650037479E-1,4.026544635E0
1.321911871E1,1.649807099E0,-3.837923489E0,1.031910771E-1,4.178775966E0
1.322917171E1,1.673827461E0,-4.065885962E0,3.743956102E-1,4.412856116E0
1.323922571E1,1.622118194E0,-4.331366217E0,6.713107891E-1,4.673613048E0
1.324927871E1,1.525746725E0,-4.588841050E0,9.551349293E-1,4.929264446E0
1.325933171E1,1.373261281E0,-4.823682187E0,1.211147227E0,5.159518775E0
1.326938471E1,1.233887633E0,-5.064926026E0,1.385493071E0,5.394028679E0
1.327943771E1,1.002254863E0,-5.354040434E0,1.477374464E0,5.643837266E0
1.328949071E1,7.060466123E-1,-5.721572437E0,1.648769072E0,5.996109774E0
1.329954471E1,3.913558978E-1,-6.052945257E0,1.793720525E0,6.325246165E0
1.330959771E1,2.048016518E-1,-6.104795442E0,1.810829332E0,6.370994740E0
1.331965071E1,2.055682218E-1,-5.876924770E0,1.693128974E0,6.119410819E0
1.332970371E1,2.984641063E-1,-5.571535222E0,1.563511552E0,5.794450269E0
1.333975671E1,4.055377346E-1,-5.259654095E0,1.444782522E0,5.469535500E0
1.334981071E1,5.523279905E-1,-4.879098589E0,1.360942367E0,5.095373723E0
1.335986371E1,5.859278458E-1,-4.520690289E0,1.338550601E0,4.750965149E0
1.336991671E1,4.506285381E-1,-4.271896818E0,1.381163062E0,4.512181281E0
1.337996971E1,1.296438807E-1,-4.152313364E0,1.464829701E0,4.405024389E0
1.339002271E1,-2.238565582E-1,-4.118065930E0,1.498774104E0,4.388040859E0
1.340007571E1,-6.295387191E-1,-4.161921217E0,1.408478476E0,4.438661829E0
1.341012971E1,-1.116469696E0,-4.282208968E0,1.323711975E0,4.619094242E0
1.342018271E1,-1.548295927E0,-4.372733222E0,1.201401088E0,4.791803489E0
1.343023571E1,-1.816372054E0,-4.308034073E0,1.012215448E0,4.783612142E0
1.344028871E1,-1.760683756E0,-3.971582945E0,7.945208323E-1,4.416417296E0
1.345034171E1,-1.304964632E0,-3.302255678E0,5.293957955E-1,3.589997933E0
1.346039471E1,-6.669708395E-1,-2.433312947E0,3.496078013E-1,2.547172474E0
1.347044871E1,-3.368288577E-2,-1.573537772E0,3.361225140E-1,1.609389326E0
1.348050171E1,5.568665993E-1,-8.671104332E-1,3.050566958E-1,1.074728105E0
1.349055471E1,9.829356623E-1,-3.879221204E-1,3.570169544E-1,1.115395532E0
1.350060771E1,1.169959440E0,-1.283324233E-1,4.437083584E-1,1.257836002E0
1.351066071E1,1.107398325E0,-1.341185904E-1,6.052698505E-1,1.269121916E0
1.352071471E1,8.593021345E-1,-4.678744622E-1,8.257535885E-1,1.280302956E0
1.353076771E1,4.613078928E-1,-1.030384648E0,1.057711464E0,1.547013586E0
1.354082071E1,3.188311279E-2,-1.596935260E0,1.119590939E0,1.950564694E0
1.355087371E1,-3.856197792E-1,-2.168111457E0,1.029456110E0,2.430882512E0
1.356092671E1,-7.635171407E-1,-2.669202197E0,9.129981391E-1,2.922527057E0
1.357098383E1,-9.851476640E-1,-2.963320946E0,8.210204136E-1,3.228910260E0
1.358103783E1,-1.132360674E0,-3.066669313E0,7.042999028E-1,3.344060365E0
1.359109083E1,-1.134952744E0,-2.965745201E0,6.018790501E-1,3.232030433E0
1.360114383E1,-1.023332906E0,-2.653332854E0,5.146268982E-1,2.890021854E0
1.361119683E1,-9.010834140E-1,-2.198143926E0,4.601916593E-1,2.419827350E0
1.362124983E1,-8.059421986E-1,-1.697161067E0,4.239009154E-1,1.926029725E0
1.363130283E1,-7.490797806E-1,-1.184364932E0,3.821329384E-1,1.452537915E0
1.364135683E1,-7.704162705E-1,-6.417538449E-1,3.035745728E-1,1.047638654E0
1.365140983E1,-7.613852459E-1,-6.059279546E-2,2.090576939E-1,7.918864180E-1
1.366146283E1,-7.628686845E-1,4.916371080E-1,1.072278486E-1,9.138782672E-1
1.367151583E1,-8.056001365E-1,9.466895033E-1,3.592748567E-2,1.243584891E0
1.368156883E1,-7.841771078E-1,1.356859695E0,-4.548081279E-2,1.567823482E0
1.369162183E1,-7.405989790E-1,1.742140774E0,-1.492367309E-1,1.898897819E0
1.370167583E1,-7.247080010E-1,2.068895756E0,-2.365366839E-1,2.204876627E0
1.371172883E1,-8.110602665E-1,2.343040708E0,-2.762283146E-1,2.494786683E0
1.372178183E1,-9.512572020E-1,2.594369824E0,-2.669593084E-1,2.776132619E0
1.373183483E1,-1.094337400E0,2.825418457E0,-2.389517301E-1,3.039352190E0
1.374188783E1,-1.275458413E0,3.082919602E0,-1.871915925E-1,3.341590658E0
1.375194083E1,-1.484030349E0,3.387605731E0,-5.479308844E-2,3.698813451E0
1.376199483E1,-1.673321677E0,3.642604852E0,1.789740618E-1,4.012556200E0
1.377204783E1,-1.786680477E0,3.868060331E0,5.088198821E-1,4.291038980E0
1.378210083E1,-1.866119580E0,4.110431221E0,8.517258972E-1,4.593852861E0
1.379215383E1,-2.004286362E0,4.426685188E0,1.151475222E0,4.993856302E0
1.380220683E1,-2.095052106E0,4.821800846E0,1.373300311E0,5.433687557E0
1.381226083E1,-2.119416869E0,5.270281409E0,1.507844304E0,5.877192224E0
1.382231383E1,-2.034439868E0,5.761994238E0,1.574538816E0,6.310205675E0
1.383236683E1,-1.843907762E0,6.282308723E0,1.561674356E0,6.730989936E0
1.384241983E1,-1.594486592E0,6.766702593E0,1.543018376E0,7.121204756E0
1.385247283E1,-1.344314055E0,7.103418599E0,1.558045721E0,7.395487985E0
1.386252583E1,-1.166582088E0,7.284299292E0,1.541494446E0,7.536453746E0
1.387257983E1,-1.184372241E0,7.317716714E0,1.493313974E0,7.561858379E0
1.388263283E1,-1.365479221E0,7.219901567E0,1.382448426E0,7.476809199E0
1.389268583E1,-1.616634675E0,6.968597009E0,1.221003951E0,7.257113930E0
1.390273883E1,-1.908631761E0,6.608095699E0,1.037956207E0,6.956087769E0
1.391279183E1,-2.257111196E0,6.249846736E0,8.051007843E-1,6.693528401E0
1.392284583E1,-2.571776767E0,5.936817216E0,5.661098047E-1,6.494637381E0
1.393289883E1,-2.760951735E0,5.743604745E0,3.442698781E-1,6.382035075E0
1.394295183E1,-2.872164023E0,5.667326648E0,1.424668247E-1,6.355172248E0
1.395300483E1,-3.026555659E0,5.597132578E0,5.775294900E-2,6.363274916E0
1.396305783E1,-3.419865696E0,5.336156141E0,1.786419399E-1,6.340501296E0
1.397311083E1,-3.904594612E0,4.953537152E0,5.026547241E-1,6.327404774E0
1.398316483E1,-4.353502314E0,4.671960097E0,8.815173879E-1,6.446492570E0
1.399321783E1,-4.597099657E0,4.570686030E0,1.168337422E0,6.587071305E0
1.400327083E1,-4.639111902E0,4.586294880E0,1.383622401E0,6.668573379E0
1.401332383E1,-4.570479038E0,4.585104971E0,1.588928813E0,6.666120387E0
1.402337683E1,-4.313538934E0,4.533247770E0,1.725848531E0,6.491186843E0
1.403342983E1,-3.943279790E0,4.457536852E0,1.775159708E0,6.210497748E0
1.404348383E1,-3.643038130E0,4.346572486E0,1.728574356E0,5.928944974E0
1.405353683E1,-3.517667395E0,4.191686760E0,1.588668028E0,5.698077562E0
1.406358983E1,-3.460410290E0,3.988601559E0,1.324072748E0,5.443946217E0
1.407364283E1,-3.285773839E0,3.793823204E0,1.040174056E0,5.125560095E0
1.408369583E1,-2.988776214E0,3.637975026E0,7.578716540E-1,4.768858878E0
1.409374883E1,-2.683793047E0,3.517213359E0,5.090786214E-1,4.453391513E0
1.410380283E1,-2.398479329E0,3.364567993E0,2.810790186E-1,4.141500487E0
1.411385583E1,-2.182979611E0,3.149290470E0,4.474230945E-2,3.832157659E0
1.412390883E1,-2.086816303E0,2.835981452E0,-2.279969716E-1,3.528395627E0
1.413396183E1,-2.101628469E0,2.365978458E0,-5.082230276E-1,3.205150064E0
1.414401483E1,-2.272962998E0,1.725953050E0,-7.660631646E-1,2.955017342E0
1.415406883E1,-2.514336644E0,9.894289953E-1,-9.715979111E-1,2.871386599E0
1.416412183E1,-2.743162751E0,1.827496089E-1,-1.107709105E0,2.964010587E0
1.417417483E1,-2.944684115E0,-6.738114971E-1,-1.182054405E0,3.243830928E0
1.418422783E1,-3.135902685E0,-1.515109470E0,-1.216112828E0,3.688952801E0
1.419428083E1,-3.295212999E0,-2.286265413E0,-1.240608130E0,4.198159928E0
1.420433383E1,-3.354851090E0,-2.935937265E0,-1.262915550E0,4.633541750E0
1.421438783E1,-3.251266496E0,-3.424350218E0,-1.268920056E0,4.889485285E0
1.422444083E1,-3.031001882E0,-3.765914151E0,-1.153331274E0,4.969834487E0
1.423449383E1,-2.748668489E0,-3.964501382E0,-9.406398278E-1,4.915002845E0
1.424454683E1,-2.434839070E0,-4.006718572E0,-7.498486894E-1,4.748105735E0
1.425459983E1,-2.151295304E0,-3.914266199E0,-5.130744624E-1,4.495864406E0
1.426465383E1,-2.027443675E0,-3.861183421E0,-1.922482646E-1,4.365343590E0
1.427470683E1,-2.171333712E0,-3.867615943E0,1.991316068E-1,4.439909522E0
1.428475983E1,-2.418946922E0,-3.844003424E0,5.046708441E-1,4.569722005E0
1.429481283E1,-2.536670085E0,-3.764822184E0,7.467359242E-1,4.600673400E0
1.430486583E1,-2.511204876E0,-3.720005322E0,9.387862605E-1,4.585401746E0
1.431491883E1,-2.322039263E0,-3.626922912E0,9.250868189E-1,4.404795315E0
1.432497283E1,-1.907400922E0,-3.449021668E0,6.790793999E-1,3.999384649E0
1.433502583E1,-1.307612252E0,-3.243948120E0,2.963361584E-1,3.510108877E0
1.434507883E1,-7.172598177E-1,-3.108999938E0,-1.377475369E-1,3.193636899E0
1.435513183E1,-2.708161318E-1,-3.134801069E0,-5.801250690E-1,3.199509997E0
1.436518483E1,1.285627306E-1,-3.284185735E0,-1.017256479E0,3.440525405E0
1.437523883E1,4.543438590E-1,-3.503849255E0,-1.373183513E0,3.790649140E0
1.438529183E1,6.899591678E-1,-3.765016896E0,-1.692146495E0,4.185063398E0
1.439534483E1,8.841364288E-1,-4.017734434E0,-1.949636530E0,4.552468540E0
1.440539783E1,1.050182735E0,-4.292843884E0,-2.147920291E0,4.913751516E0
1.441545083E1,1.192762996E0,-4.624559059E0,-2.276402037E0,5.290674465E0
1.442550383E1,1.321247374E0,-4.977130083E0,-2.361455344E0,5.665155764E0
1.443555783E1,1.455074937E0,-5.321526407E0,-2.436906061E0,6.031119094E0
1.444561083E1,1.587558811E0,-5.659348707E0,-2.503252370E0,6.388649559E0
1.445566383E1,1.716181183E0,-5.978857527E0,-2.550768599E0,6.722978181E0
1.446571683E1,1.822304054E0,-6.286642095E0,-2.584684496E0,7.037276095E0
1.447576983E1,1.906879351E0,-6.545405946E0,-2.594768604E0,7.294611159E0
1.448582383E1,1.979319921E0,-6.783305762E0,-2.604692206E0,7.530960490E0
1.449587683E1,2.033492619E0,-6.986043931E0,-2.594801641E0,7.724823467E0
1.450592983E1,2.089980816E0,-7.133918261E0,-2.561674825E0,7.862759533E0
1.451598283E1,2.103920578E0,-7.228970014E0,-2.491526656E0,7.930459907E0
1.452603583E1,2.108535785E0,-7.296742167E0,-2.417332214E0,7.970687827E0
1.453608883E1,2.101333770E0,-7.316745492E0,-2.337825576E0,7.963403583E0
1.454614283E1,2.088297987E0,-7.303217958E0,-2.250704109E0,7.922351293E0
1.455619583E1,2.024337049E0,-7.271375191E0,-2.136062137E0,7.844335480E0
1.456624471E1,1.827725592E0,-7.266927799E0,-2.016323440E0,7.759792568E0
1.457629771E1,1.456775308E0,-7.319366798E0,-1.834701028E0,7.685144923E0
1.458635071E1,9.528914988E-1,-7.410512611E0,-1.651382924E0,7.651847158E0
1.459640471E1,2.946166384E-1,-7.562903330E0,-1.479839650E0,7.711953782E0
1.460645771E1,-5.632008880E-1,-7.744074630E0,-1.279600580E0,7.869260750E0
1.461651071E1,-1.533817052E0,-7.969848490E0,-1.024086612E0,8.180454333E0
1.462656371E1,-2.490606889E0,-8.192758384E0,-6.059709316E-1,8.584381945E0
1.463661671E1,-3.334361862E0,-8.311823482E0,3.431204617E-2,8.955755464E0
1.464666971E1,-3.871807519E0,-8.225910927E0,7.037340385E-1,9.118757900E0
1.465672371E1,-4.069642214E0,-7.813782211E0,1.208095272E0,8.892506642E0
1.466677671E1,-4.018305999E0,-7.115164486E0,1.597916569E0,8.326204785E0
1.467682971E1,-3.793137326E0,-6.237750016E0,1.806530897E0,7.520702755E0
1.468688271E1,-3.447549924E0,-5.396785920E0,1.950833455E0,6.694523875E0
1.469693571E1,-3.264772394E0,-4.742491551E0,2.158584735E0,6.148939174E0
1.470698971E1,-3.301836725E0,-4.296101952E0,2.413076172E0,5.931404079E0
1.471704271E1,-3.474644167E0,-4.075457270E0,2.651056241E0,5.975834940E0
1.472709571E1,-3.734171079E0,-4.005616956E0,2.817741648E0,6.158625565E0
1.473714871E1,-3.987589990E0,-3.969986655E0,2.823549103E0,6.295561731E0
1.474720171E1,-4.026337734E0,-3.838566975E0,2.649398555E0,6.161599198E0
1.475725471E1,-3.753282119E0,-3.455545991E0,2.360832615E0,5.621517180E0
1.476730871E1,-3.238663407E0,-2.758516662E0,2.006387267E0,4.703609752E0
1.477736171E1,-2.768837290E0,-1.883089223E0,1.820532348E0,3.811406957E0
1.478741471E1,-2.423600721E0,-1.027058752E0,1.793958945E0,3.185432283E0
1.479746771E1,-2.105647261E0,-2.750145058E-1,1.850520378E0,2.816701800E0
1.480752071E1,-2.015004893E0,2.838910908E-1,2.006646298E0,2.857878275E0
1.481757471E1,-2.053005947E0,6.832205442E-1,2.278431167E0,3.142112716E0
1.482762771E1,-2.200837008E0,9.499760771E-1,2.547227232E0,3.497785679E0
1.483768071E1,-2.336088368E0,1.062613770E0,2.822470876E0,3.814813067E0
1.484773371E1,-2.407105726E0,1.122708675E0,3.105072656E0,4.086087241E0
1.485778671E1,-2.516337562E0,1.124879161E0,3.375553742E0,4.357943427E0
1.486783971E1,-2.611968774E0,1.103206164E0,3.610155728E0,4.590497696E0
1.487789371E1,-2.744255011E0,1.064750781E0,3.790176880E0,4.798965573E0
1.488794671E1,-2.849637040E0,1.068474288E0,3.889764903E0,4.938860148E0
1.489799971E1,-2.913913143E0,1.080047682E0,3.966970954E0,5.039270914E0
1.490805271E1,-2.945674633E0,1.152173964E0,4.023763205E0,5.118122138E0
1.491810571E1,-2.868097869E0,1.263279540E0,4.054958686E0,5.124895172E0
1.492815971E1,-2.735015826E0,1.402426023E0,4.091143010E0,5.117085249E0
1.493821271E1,-2.508373069E0,1.611736755E0,4.128459356E0,5.092524666E0
1.494826571E1,-2.235098183E0,1.853027664E0,4.211689793E0,5.115438038E0
1.495831871E1,-2.058858426E0,2.086854309E0,4.322846532E0,5.223108372E0
1.496837171E1,-1.880255224E0,2.351152258E0,4.444720048E0,5.368315653E0
1.497842571E1,-1.711996331E0,2.645708377E0,4.531450628E0,5.519488115E0
1.498847871E1,-1.533950368E0,2.944526240E0,4.634504296E0,5.701041008E0
1.499853171E1,-1.359239073E0,3.235485445E0,4.744361783E0,5.901259667E0
1.500858471E1,-1.197854167E0,3.521902241E0,4.848317091E0,6.111041533E0
1.501863771E1,-1.037149876E0,3.798393680E0,4.909535100E0,6.293409991E0
1.502869071E1,-9.350124675E-1,4.066077751E0,4.960411724E0,6.481737503E0
1.503874471E1,-8.401881713E-1,4.312066605E0,5.008085243E0,6.661888048E0
1.504879771E1,-7.429431278E-1,4.544239073E0,5.017653626E0,6.810207130E0
1.505885071E1,-6.108861011E-1,4.726530114E0,5.024379094E0,6.925146499E0
1.506890371E1,-4.200312281E-1,4.854262248E0,5.042070429E0,7.011616249E0
1.507895671E1,-2.066131192E-1,4.938368890E0,5.038987777E0,7.058439919E0
1.508901071E1,-4.405935466E-2,4.988454385E0,4.992696540E0,7.057877664E0
1.509906371E1,7.828135371E-2,4.983622831E0,4.904527545E0,6.992640055E0
1.510911671E1,1.434286916E-1,4.907097981E0,4.765609396E0,6.841872207E0
1.511916971E1,2.222555906E-1,4.857144048E0,4.567774701E0,6.671267614E0
1.512922271E1,2.584580415E-1,4.890752674E0,4.334160894E0,6.539970408E0
1.513927571E1,2.376244122E-1,4.952924364E0,4.080054058E0,6.421430233E0
1.514932971E1,2.553356284E-1,4.960711101E0,3.805259188E0,6.257303605E0
1.515938271E1,2.979092056E-1,4.944445902E0,3.497796217E0,6.063899203E0
1.516943571E1,3.199339128E-1,4.932597688E0,3.161527523E0,5.867549228E0
1.517948871E1,3.145889729E-1,4.912759840E0,2.818243339E0,5.672448412E0
1.518954171E1,2.479868478E-1,4.881160609E0,2.519491550E0,5.498642018E0
1.519959571E1,1.392619658E-1,4.809721375E0,2.276535208E0,5.323103057E0
1.520964871E1,-8.797135949E-3,4.696994074E0,2.117783157E0,5.152362198E0
1.521970171E1,-2.219176215E-1,4.550082488E0,2.025966668E0,4.985683406E0
1.522975471E1,-5.304950720E-1,4.363750729E0,1.929468899E0,4.800687001E0
1.523980771E1,-8.910022295E-1,4.264906472E0,1.807380205E0,4.716983718E0
1.524986171E1,-1.185927016E0,4.258969794E0,1.665553651E0,4.724332287E0
1.525991471E1,-1.455476641E0,4.238132071E0,1.492285448E0,4.723038383E0
1.526996771E1,-1.742993590E0,4.174244224E0,1.344023448E0,4.718976640E0
1.528002071E1,-2.112710112E0,4.075620115E0,1.237279018E0,4.754480277E0
1.529007371E1,-2.538483891E0,3.932315384E0,1.161503781E0,4.822457442E0
1.530012671E1,-2.878477262E0,3.822303530E0,1.071407543E0,4.903422248E0
1.531018071E1,-3.083903981E0,3.801240397E0,9.560314536E-1,4.987372902E0
1.532023371E1,-3.161359708E0,3.857992887E0,7.820352727E-1,5.048750686E0
1.533028671E1,-3.157825651E0,3.907035532E0,6.160603023E-1,5.061256739E0
1.534033971E1,-3.169297303E0,3.949424044E0,4.603904281E-1,5.084717792E0
1.535039271E1,-3.271045287E0,3.924983560E0,3.211273295E-1,5.119409730E0
1.536044671E1,-3.472392989E0,3.822171967E0,2.223526543E-1,5.168747655E0
1.537049971E1,-3.811665983E0,3.581647921E0,1.682454443E-1,5.233097163E0
1.538055271E1,-4.212557520E0,3.243288847E0,1.756649031E-1,5.319344091E0
1.539060571E1,-4.558385242E0,2.940585217E0,2.013178077E-1,5.428300498E0
1.540065871E1,-4.723996516E0,2.754815667E0,1.785184175E-1,5.471473409E0
1.541071271E1,-4.627413377E0,2.745084439E0,1.135693002E-1,5.381574224E0
1.542076571E1,-4.224982853E0,2.926169491E0,3.586155832E-2,5.139477994E0
1.543081871E1,-3.741216974E0,3.177054512E0,-1.084081091E-2,4.908207141E0
1.544087171E1,-3.315303447E0,3.398119024E0,-7.668974161E-2,4.748087106E0
1.545092471E1,-2.927754087E0,3.550379935E0,-2.530359185E-1,4.608792559E0
1.546097871E1,-2.682883805E0,3.581815736E0,-4.757119238E-1,4.500396795E0
1.547103171E1,-2.559391195E0,3.453855561E0,-7.917404813E-1,4.371093057E0
1.548108471E1,-2.615605157E0,3.109501337E0,-1.126778337E0,4.216635901E0
1.549113771E1,-2.799800051E0,2.594583247E0,-1.395111156E0,4.064120777E0
1.550119071E1,-3.034473374E0,1.974424778E0,-1.612438275E0,3.963122386E0
1.551124371E1,-3.259232157E0,1.365278516E0,-1.779897122E0,3.956591140E0
1.552129771E1,-3.568514782E0,7.286107251E-1,-1.819085746E0,4.071147786E0
1.553135071E1,-3.918395210E0,4.908298999E-3,-1.725657911E0,4.281558167E0
1.554140371E1,-4.266961184E0,-7.280065615E-1,-1.532882667E0,4.592023581E0
1.555145671E1,-4.511832050E0,-1.374555708E0,-1.292984272E0,4.890586894E0
1.556150971E1,-4.660875238E0,-1.942047283E0,-1.024836371E0,5.152241767E0
1.557156358E1,-4.677269661E0,-2.333176163E0,-8.025242087E-1,5.288157297E0
1.558161658E1,-4.461881626E0,-2.444335825E0,-6.182326891E-1,5.124975798E0
1.559166958E1,-4.128746454E0,-2.311597744E0,-4.057342011E-1,4.749173787E0
1.560172258E1,-3.842000753E0,-2.132830966E0,-8.748545587E-2,4.395178201E0
1.561177558E1,-3.614212527E0,-2.118762273E0,3.145100355E-1,4.201261991E0
1.562182958E1,-3.362607422E0,-2.213948512E0,7.180632252E-1,4.089536830E0
1.563188258E1,-3.076787919E0,-2.326722006E0,1.045989697E0,3.996792919E0
1.564193558E1,-2.709142481E0,-2.477989182E0,1.296509120E0,3.893689673E0
1.565198858E1,-2.263972903E0,-2.665354437E0,1.429974595E0,3.778162903E0
1.566204158E1,-1.777522568E0,-2.895047101E0,1.438427914E0,3.689167801E0
1.567209458E1,-1.336408035E0,-3.191139577E0,1.360888572E0,3.717711116E0
1.568214858E1,-9.853160638E-1,-3.544080145E0,1.256265512E0,3.887101087E0
1.569220158E1,-6.910572749E-1,-3.937573493E0,1.099025624E0,4.146070729E0
1.570225458E1,-3.987619811E-1,-4.364743294E0,8.779249316E-1,4.469982922E0
1.571230758E1,-1.353893548E-1,-4.781177900E0,6.558640534E-1,4.827851493E0
1.572236158E1,1.992731094E-1,-5.093853371E0,4.435608624E-1,5.117010668E0
1.573241458E1,5.981309849E-1,-5.331509943E0,2.422910750E-1,5.370424928E0
1.574246758E1,9.758394814E-1,-5.540608714E0,9.125515580E-2,5.626627330E0
1.575252058E1,1.335509902E0,-5.703488753E0,4.978904128E-3,5.857763690E0
1.576257358E1,1.699138303E0,-5.872242905E0,-6.193144239E-2,6.113439557E0
1.577262658E1,2.085214750E0,-6.063722845E0,-8.713411130E-2,6.412834604E0
1.578268058E1,2.433933921E0,-6.231702826E0,-1.159268975E-1,6.691157859E0
1.579273358E1,2.744295942E0,-6.379935590E0,-1.494821678E-1,6.946731841E0
1.580278658E1,3.002140025E0,-6.516466906E0,-2.204885620E-1,7.178147454E0
1.581283958E1,3.190813887E0,-6.652014720E0,-3.324223959E-1,7.385194497E0
1.582289258E1,3.313228855E0,-6.795837514E0,-4.828196530E-1,7.575883301E0
1.583294658E1,3.359545235E0,-6.891250625E0,-6.156777482E-1,7.691224770E0
1.584299958E1,3.359349353E0,-6.970343572E0,-7.246809576E-1,7.771491497E0
1.585305258E1,3.272717591E0,-7.055814078E0,-7.606818259E-1,7.814974701E0
1.586310558E1,3.121357151E0,-7.133180927E0,-7.492902803E-1,7.822184895E0
1.587315858E1,2.850853845E0,-7.193441747E0,-6.624355929E-1,7.766066748E0
1.588321258E1,2.506845192E0,-7.215730748E0,-5.491389191E-1,7.658498325E0
1.589326558E1,2.169394190E0,-7.135378311E0,-4.107897037E-1,7.469179538E0
1.590331858E1,1.842999689E0,-6.991833844E0,-2.168970560E-1,7.233908535E0
1.591337158E1,1.507747241E0,-6.869817656E0,-4.352667332E-3,7.033328893E0
1.592342458E1,1.065826376E0,-6.864673276E0,2.200810841E-1,6.950407235E0
1.593347858E1,5.370924854E-1,-6.986666075E0,5.075816611E-1,7.025639496E0
1.594353158E1,3.311336696E-2,-7.095009134E0,8.098773748E-1,7.141159042E0
1.595358458E1,-3.957179207E-1,-7.102083095E0,1.076358966E0,7.194075729E0
1.596363758E1,-7.577465236E-1,-7.012193849E0,1.284488268E0,7.169027304E0
1.597369058E1,-1.010035168E0,-6.853133211E0,1.431162164E0,7.073459620E0
1.598374458E1,-1.245126566E0,-6.652401806E0,1.423336251E0,6.915972530E0
1.599379758E1,-1.613017588E0,-6.518175462E0,1.398201994E0,6.858819572E0
1.600385058E1,-2.109131616E0,-6.504336857E0,1.380091559E0,6.975635228E0
1.601390358E1,-2.753411751E0,-6.555458479E0,1.341887314E0,7.235742789E0
1.602395658E1,-3.544538859E0,-6.618233017E0,1.265328696E0,7.613528794E0
1.603400958E1,-4.278915816E0,-6.619941573E0,1.132382820E0,7.963355941E0
1.604406358E1,-4.848674356E0,-6.394892183E0,8.695293532E-1,8.072197368E0
1.605411658E1,-4.971764093E0,-5.704970437E0,6.421225119E-1,7.594566953E0
1.606416958E1,-4.637351305E0,-4.574435849E0,5.408382118E-1,6.536283075E0
1.607422258E1,-3.991657898E0,-3.261693835E0,6.205467246E-1,5.192018653E0
1.608427658E1,-3.377026656E0,-2.035546015E0,8.884148365E-1,4.041910135E0
1.609432958E1,-2.857698596E0,-9.205001168E-1,1.208580299E0,3.236422109E0
1.610438258E1,-2.374525040E0,-3.402242627E-2,1.497459065E0,2.807474015E0
1.611443558E1,-1.961450830E0,6.007780925E-1,1.635874938E0,2.623796960E0
1.612448858E1,-1.752930933E0,9.638193601E-1,1.682571387E0,2.613955066E0
1.613454158E1,-1.743251452E0,1.081390933E0,1.644531741E0,2.629223578E0
1.614459558E1,-1.843150547E0,9.527567205E-1,1.573648869E0,2.604096786E0
1.615464858E1,-2.049496449E0,6.040330182E-1,1.502980590E0,2.612325063E0
1.616470158E1,-2.425086499E0,8.465160280E-2,1.475295779E0,2.839842963E0
1.617475458E1,-2.712812194E0,-3.883657779E-1,1.434459994E0,3.093194700E0
1.618480758E1,-2.860383053E0,-7.729149319E-1,1.398977920E0,3.276633626E0
1.619486158E1,-3.001091620E0,-1.064844190E0,1.379385654E0,3.470324026E0
1.620491458E1,-3.110069686E0,-1.215074948E0,1.418897629E0,3.627976166E0
1.621496758E1,-3.165983686E0,-1.175630069E0,1.593101386E0,3.734103746E0
1.622502058E1,-3.079494011E0,-9.256168690E-1,1.879563498E0,3.724621980E0
1.623507358E1,-2.849672123E0,-4.525154346E-1,2.238248663E0,3.651733630E0
1.624512758E1,-2.605821596E0,1.486151719E-1,2.664915311E0,3.730169738E0
1.625518058E1,-2.362413703E0,7.110737559E-1,3.063690741E0,3.933551238E0
1.626523358E1,-2.153080459E0,1.230886842E0,3.448566170E0,4.247757821E0
1.627528658E1,-1.957998049E0,1.736137145E0,3.773658496E0,4.592213735E0
1.628533958E1,-1.762495809E0,2.157859096E0,4.014442159E0,4.886562514E0
1.629539358E1,-1.621213630E0,2.500674333E0,4.157723501E0,5.115502953E0
1.630544658E1,-1.570760930E0,2.799745965E0,4.267141278E0,5.339884086E0
1.631549958E1,-1.577312735E0,3.004026922E0,4.396067705E0,5.553152661E0
1.632555258E1,-1.592965146E0,3.150293560E0,4.515990882E0,5.732020684E0
1.633560558E1,-1.553135667E0,3.321200949E0,4.588716212E0,5.873578348E0
1.634565958E1,-1.473610611E0,3.529531688E0,4.652780353E0,6.023079543E0
1.635571258E1,-1.399341032E0,3.725974160E0,4.708871523E0,6.165590790E0
1.636576558E1,-1.333888469E0,3.925460985E0,4.774774321E0,6.323525300E0
1.637581858E1,-1.270608147E0,4.117566870E0,4.892008656E0,6.519244641E0
1.638587158E1,-1.191185417E0,4.308257144E0,5.018233670E0,6.720317811E0
1.639592458E1,-1.112737418E0,4.522955501E0,5.141807556E0,6.937830783E0
1.640597858E1,-9.737222046E-1,4.813872313E0,5.233503592E0,7.177120692E0
1.641603158E1,-7.836192834E-1,5.136894726E0,5.237873801E0,7.378148044E0
1.642608458E1,-5.983344680E-1,5.436771519E0,5.223655711E0,7.563270964E0
1.643613758E1,-4.362250918E-1,5.652394613E0,5.175727254E0,7.676458155E0
1.644619058E1,-3.232095230E-1,5.793728832E0,5.061517099E0,7.700046332E0
1.645624458E1,-2.788613158E-1,5.825269883E0,4.849999043E0,7.585118559E0
1.646629758E1,-2.522173083E-1,5.763396986E0,4.536230142E0,7.338783434E0
1.647635058E1,-3.708333403E-1,5.726895742E0,4.070414046E0,7.035845558E0
1.648640358E1,-5.695117879E-1,5.744608712E0,3.498583252E0,6.750182050E0
1.649645658E1,-7.256844860E-1,5.799722228E0,2.862333684E0,6.508175629E0
1.650651058E1,-1.042492477E0,5.863039387E0,2.160383777E0,6.334767517E0
1.651656358E1,-1.293237457E0,5.829668743E0,1.546645989E0,6.168436965E0
1.652661658E1,-1.357806505E0,5.732826573E0,1.137627407E0,6.000261255E0
1.653666958E1,-1.391184166E0,5.605101163E0,8.888469458E-1,5.843167063E0
1.654672258E1,-1.409301179E0,5.383889301E0,7.454884938E-1,5.614993046E0
1.655677658E1,-1.510889534E0,5.102825924E0,7.594049402E-1,5.375715343E0
1.656683000E1,-1.742329347E0,4.825926056E0,8.758554558E-1,5.205035699E0
1.657688300E1,-2.108874339E0,4.584146613E0,1.090049636E0,5.162359863E0
1.658693600E1,-2.523057182E0,4.453843458E0,1.331087068E0,5.289076656E0
1.659698900E1,-2.872902526E0,4.439161392E0,1.600106936E0,5.524496809E0
1.660704300E1,-3.171104677E0,4.396414445E0,1.836435020E0,5.723360764E0
1.661709600E1,-3.431033294E0,4.285781617E0,2.167616491E0,5.902412623E0
